GX,GY,GZ,AX,AY,AZ,SX,SY,SZ,TA,TS
318.000000,-12.000000,384.000000,636.000000,-23.000000,768.000000,6996.000000,-242.000000,8448.000000,10971.384780,498.699308
425.000000,-14.000000,595.000000,641.000000,-16.000000,1018.000000,11532.000000,-284.000000,17331.000000,20819.011528,474.962104
481.000000,-16.000000,697.000000,649.000000,-21.000000,1003.000000,15060.000000,-389.000000,23757.000000,28130.943283,349.120323
514.000000,-19.000000,757.000000,647.000000,-27.000000,1001.000000,17720.000000,-549.000000,28637.000000,33680.522116,278.008993
536.000000,-20.000000,799.000000,649.000000,-25.000000,1009.000000,20093.000000,-654.000000,33047.000000,38681.527555,238.524632
552.000000,-20.000000,828.000000,648.000000,-17.000000,1005.000000,22013.000000,-594.000000,36587.000000,42702.852059,201.380237
563.000000,-20.000000,851.000000,647.000000,-15.000000,1017.000000,23693.000000,-494.000000,39907.000000,46413.047023,186.110182
572.000000,-21.000000,868.000000,646.000000,-22.000000,1009.000000,25321.000000,-516.000000,43009.000000,49911.856087,159.241954
579.000000,-22.000000,883.000000,646.000000,-23.000000,1026.000000,26728.000000,-537.000000,46012.000000,53214.457594,157.920866
585.000000,-22.000000,895.000000,650.000000,-18.000000,1018.000000,28028.000000,-457.000000,48472.000000,55993.860530,139.176147
590.000000,-23.000000,904.000000,649.000000,-34.000000,1006.000000,29267.000000,-688.000000,50614.000000,58470.570623,118.346948
593.000000,-24.000000,911.000000,639.000000,-33.000000,1004.000000,30233.000000,-877.000000,52567.000000,60647.282767,104.144131
596.000000,-25.000000,919.000000,640.000000,-29.000000,1030.000000,31157.000000,-961.000000,54898.000000,63130.599348,119.469661
598.000000,-26.000000,925.000000,640.000000,-32.000000,1015.000000,32081.000000,-1093.000000,56878.000000,65310.734906,99.498744
601.000000,-26.000000,929.000000,647.000000,-24.000000,1003.000000,33047.000000,-1051.000000,58432.000000,67137.973115,87.155034
603.000000,-26.000000,933.000000,639.000000,-16.000000,1000.000000,33803.000000,-841.000000,59839.000000,68731.768572,76.713754
604.000000,-26.000000,937.000000,634.000000,-15.000000,1015.000000,34433.000000,-610.000000,61477.000000,70465.772670,84.291162
605.000000,-26.000000,941.000000,641.000000,-13.000000,1022.000000,35189.000000,-337.000000,63178.000000,72317.625611,89.587946
607.000000,-26.000000,944.000000,649.000000,-24.000000,1008.000000,36071.000000,-295.000000,64522.000000,73920.853282,76.576759
608.000000,-26.000000,946.000000,648.000000,-11.000000,1001.000000,36911.000000,20.000000,65677.000000,75338.507086,69.641941
609.000000,-26.000000,948.000000,638.000000,-26.000000,1008.000000,37520.000000,20.000000,66937.000000,76735.342372,66.640828
610.000000,-26.000000,950.000000,646.000000,-14.000000,1008.000000,38276.000000,272.000000,68155.000000,78167.961372,69.310894
611.000000,-26.000000,952.000000,655.000000,-12.000000,1017.000000,39244.000000,580.000000,69585.000000,79890.551137,79.730797
612.000000,-26.000000,954.000000,650.000000,-22.000000,1013.000000,40042.000000,664.000000,70824.000000,81362.409232,70.292247
613.000000,-26.000000,966.000000,647.000000,-19.000000,1268.000000,40756.000000,811.000000,77166.000000,87271.420368,303.988487
614.000000,-27.000000,968.000000,647.000000,-31.000000,1024.000000,41449.000000,727.000000,78342.000000,88634.175655,65.122961
615.000000,-27.000000,970.000000,662.000000,-9.000000,1024.000000,42483.000000,1123.000000,79530.000000,90172.541929,73.817342
615.000000,-27.000000,971.000000,636.000000,-14.000000,1023.000000,42924.000000,1396.000000,80622.000000,91347.279522,57.567352
615.000000,-27.000000,972.000000,639.000000,-17.000000,1008.000000,43404.000000,1596.000000,81342.000000,92211.579511,44.407207
615.000000,-27.000000,973.000000,645.000000,-15.000000,1016.000000,44034.000000,1848.000000,82245.000000,93309.422273,53.786615
615.000000,-27.000000,973.000000,643.000000,-21.000000,1002.000000,44622.000000,1974.000000,82854.000000,94126.536513,40.755368
615.000000,-28.000000,973.000000,646.000000,-31.000000,1000.000000,45242.000000,1914.000000,83394.000000,94895.000901,41.218928
615.000000,-29.000000,974.000000,639.000000,-31.000000,1007.000000,45746.000000,1872.000000,84087.000000,95743.534868,40.853396
616.000000,-29.000000,975.000000,652.000000,-28.000000,1011.000000,46502.000000,1893.000000,84843.000000,96769.592859,50.921508
616.000000,-29.000000,976.000000,634.000000,-22.000000,1014.000000,46880.000000,2040.000000,85641.000000,97653.862602,42.626283
616.000000,-29.000000,977.000000,639.000000,-20.000000,1020.000000,47386.000000,2238.000000,86587.000000,98730.695374,49.588305
616.000000,-29.000000,978.000000,630.000000,-13.000000,1028.000000,47666.000000,2558.000000,87587.000000,99750.055083,54.332311
616.000000,-29.000000,978.000000,640.000000,-19.000000,1015.000000,48170.000000,2768.000000,88364.000000,100678.732710,45.221676
616.000000,-29.000000,978.000000,635.000000,-27.000000,997.000000,48569.000000,2810.000000,88763.000000,101221.114546,26.944387
616.000000,-29.000000,978.000000,649.000000,-9.000000,1010.000000,49262.000000,3230.000000,89435.000000,102155.747606,50.129831
616.000000,-29.000000,978.000000,644.000000,-10.000000,996.000000,49822.000000,3610.000000,89795.000000,102754.103611,38.327536
616.000000,-29.000000,978.000000,639.000000,-4.000000,1013.000000,50305.000000,4135.000000,90530.000000,103650.239508,48.774994
616.000000,-29.000000,978.000000,647.000000,-22.000000,995.000000,50956.000000,4282.000000,90887.000000,104284.688373,36.041643
616.000000,-29.000000,978.000000,646.000000,-19.000000,1018.000000,51586.000000,4492.000000,91727.000000,105333.451425,50.990195
616.000000,-30.000000,978.000000,651.000000,-46.000000,1003.000000,52426.000000,4108.000000,92327.000000,106252.699114,45.891176
616.000000,-30.000000,978.000000,653.000000,-30.000000,1002.000000,53203.000000,4108.000000,92831.000000,107074.877698,44.102154
616.000000,-31.000000,978.000000,641.000000,-40.000000,1025.000000,53778.000000,3901.000000,93912.000000,108290.141883,53.990740
616.000000,-31.000000,978.000000,645.000000,-20.000000,1008.000000,54387.000000,4132.000000,94542.000000,109147.647510,43.150898
616.000000,-31.000000,978.000000,625.000000,-16.000000,1020.000000,54576.000000,4447.000000,95424.000000,110018.431915,45.497253
616.000000,-31.000000,978.000000,645.000000,-16.000000,1015.000000,55185.000000,4762.000000,96201.000000,111007.627080,49.345719
616.000000,-31.000000,978.000000,637.000000,-10.000000,1010.000000,55605.000000,5182.000000,96841.000000,111789.751006,43.657760
616.000000,-31.000000,978.000000,640.000000,-22.000000,1007.000000,56085.000000,5362.000000,97421.000000,112539.457569,38.704005
616.000000,-31.000000,978.000000,652.000000,-19.000000,1007.000000,56841.000000,5614.000000,98030.000000,113456.146493,47.759816
616.000000,-31.000000,978.000000,651.000000,-13.000000,998.000000,57541.000000,5974.000000,98430.000000,114171.451147,44.147480
616.000000,-31.000000,978.000000,636.000000,-28.000000,1004.000000,57961.000000,6037.000000,98976.000000,114857.178557,32.939338
616.000000,-31.000000,978.000000,639.000000,-29.000000,1019.000000,58421.000000,6077.000000,99796.000000,115798.034465,47.053161
616.000000,-31.000000,978.000000,638.000000,-25.000000,1015.000000,58861.000000,6197.000000,100536.000000,116664.079416,43.462628
616.000000,-31.000000,978.000000,626.000000,-30.000000,1023.000000,59061.000000,6217.000000,101436.000000,117541.970827,46.108568
616.000000,-31.000000,978.000000,638.000000,-26.000000,1018.000000,59523.000000,6322.000000,102276.000000,118504.579612,45.923850
616.000000,-31.000000,978.000000,629.000000,-24.000000,1023.000000,59796.000000,6469.000000,103221.000000,119465.410969,47.360321
616.000000,-31.000000,978.000000,646.000000,-28.000000,1018.000000,60426.000000,6532.000000,104061.000000,120510.000502,50.089919
616.000000,-31.000000,978.000000,651.000000,-19.000000,998.000000,61126.000000,6772.000000,104461.000000,121220.247405,42.059482
616.000000,-31.000000,978.000000,636.000000,-31.000000,1023.000000,61546.000000,6772.000000,105406.000000,122246.451629,49.244289
616.000000,-31.000000,978.000000,649.000000,-9.000000,1015.000000,62206.000000,7212.000000,106146.000000,123241.927508,54.240206
616.000000,-31.000000,978.000000,640.000000,-11.000000,1012.000000,62710.000000,7632.000000,106860.000000,124136.421424,46.173586
616.000000,-31.000000,978.000000,641.000000,-33.000000,1017.000000,63235.000000,7590.000000,107679.000000,125104.118102,46.368092
616.000000,-31.000000,978.000000,643.000000,-19.000000,1008.000000,63802.000000,7842.000000,108309.000000,125948.527776,42.107007
616.000000,-31.000000,978.000000,650.000000,-24.000000,1001.000000,64516.000000,7989.000000,108792.000000,126735.305424,41.641326
616.000000,-31.000000,978.000000,639.000000,-23.000000,1001.000000,64976.000000,8149.000000,109252.000000,127374.590406,33.496268
616.000000,-31.000000,978.000000,636.000000,-38.000000,1014.000000,65376.000000,8009.000000,109972.000000,128187.387215,41.773197
616.000000,-31.000000,978.000000,644.000000,-21.000000,1008.000000,65936.000000,8209.000000,110572.000000,129000.430081,42.237424
616.000000,-31.000000,978.000000,635.000000,-25.000000,1016.000000,66316.000000,8329.000000,111332.000000,129853.757439,42.906876
616.000000,-31.000000,978.000000,645.000000,-28.000000,1016.000000,66925.000000,8392.000000,112130.000000,130853.040427,47.895720
616.000000,-31.000000,978.000000,649.000000,-23.000000,1012.000000,67585.000000,8552.000000,112810.000000,131783.781358,48.052055
616.000000,-31.000000,978.000000,639.000000,-13.000000,1015.000000,68068.000000,8930.000000,113587.000000,132721.528370,47.138095
616.000000,-31.000000,978.000000,653.000000,-23.000000,1009.000000,68808.000000,9090.000000,114207.000000,133642.836744,48.928519
616.000000,-31.000000,978.000000,647.000000,-25.000000,1005.000000,69459.000000,9216.000000,114774.000000,134471.403700,41.545156
616.000000,-31.000000,978.000000,653.000000,-17.000000,1010.000000,70199.000000,9496.000000,115414.000000,135419.588734,50.882217
616.000000,-31.000000,978.000000,648.000000,-25.000000,1022.000000,70839.000000,9616.000000,116294.000000,136509.801161,54.735729
616.000000,-31.000000,978.000000,646.000000,-24.000000,1011.000000,71439.000000,9756.000000,116954.000000,137393.407313,45.144213
616.000000,-31.000000,978.000000,638.000000,-19.000000,1007.000000,71879.000000,9996.000000,117534.000000,138133.094561,38.327536
616.000000,-31.000000,978.000000,637.000000,-27.000000,1002.000000,72299.000000,10076.000000,118014.000000,138765.901334,32.140317
616.000000,-31.000000,978.000000,641.000000,-24.000000,1002.000000,72799.000000,10216.000000,118494.000000,139444.932117,35.355339
616.000000,-31.000000,978.000000,653.000000,-26.000000,1016.000000,73576.000000,10321.000000,119292.000000,140536.586272,53.272882
616.000000,-31.000000,978.000000,659.000000,-23.000000,995.000000,74436.000000,10481.000000,119632.000000,141288.304120,46.925473
616.000000,-31.000000,978.000000,641.000000,-21.000000,1020.000000,74936.000000,10681.000000,120472.000000,142277.864199,49.889879
616.000000,-31.000000,978.000000,648.000000,-17.000000,1024.000000,75608.000000,10975.000000,121438.000000,143471.976821,57.758116
616.000000,-31.000000,978.000000,643.000000,-31.000000,1009.000000,76175.000000,10975.000000,122089.000000,144321.880431,41.109610
616.000000,-31.000000,978.000000,636.000000,-17.000000,993.000000,76595.000000,11269.000000,122404.000000,144832.743542,28.653098
616.000000,-31.000000,978.000000,641.000000,-13.000000,1015.000000,77120.000000,11647.000000,123181.000000,145796.796158,48.145612
616.000000,-31.000000,978.000000,636.000000,-18.000000,993.000000,77540.000000,11920.000000,123496.000000,146307.211087,28.178006
616.000000,-31.000000,978.000000,642.000000,-15.000000,1276.000000,78086.000000,12256.000000,129754.000000,151933.319084,299.559677
616.000000,-31.000000,978.000000,649.000000,-17.000000,1014.000000,78812.000000,12564.000000,130546.000000,153007.985269,50.803543
616.000000,-31.000000,978.000000,635.000000,-36.000000,1006.000000,79192.000000,12464.000000,131106.000000,153673.378944,34.205263
616.000000,-31.000000,978.000000,637.000000,-30.000000,1012.000000,79612.000000,12484.000000,131786.000000,154471.585076,39.974992
616.000000,-31.000000,978.000000,655.000000,-28.000000,1000.000000,80392.000000,12544.000000,132226.000000,155254.438507,44.877611
616.000000,-31.000000,978.000000,632.000000,-27.000000,988.000000,80728.000000,12628.000000,132436.000000,155614.171797,19.287302
616.000000,-31.000000,978.000000,638.000000,-27.000000,1022.000000,81168.000000,12708.000000,133316.000000,156597.871454,49.355851
616.000000,-31.000000,978.000000,637.000000,-28.000000,992.000000,81609.000000,12771.000000,133610.000000,157082.014954,25.416530
616.000000,-31.000000,978.000000,647.000000,-42.000000,996.000000,82260.000000,12540.000000,133988.000000,157723.629631,37.496667
616.000000,-31.000000,978.000000,638.000000,-21.000000,1008.000000,82722.000000,12750.000000,134618.000000,158516.553420,38.522721
616.000000,-31.000000,978.000000,651.000000,-24.000000,991.000000,83422.000000,12890.000000,134878.000000,159114.603566,37.986840
616.000000,-31.000000,978.000000,644.000000,-18.000000,1026.000000,83982.000000,13150.000000,135838.000000,160243.131110,57.070132
616.000000,-31.000000,978.000000,643.000000,-18.000000,1005.000000,84522.000000,13410.000000,136378.000000,161005.451672,40.336088
616.000000,-31.000000,978.000000,643.000000,-17.000000,1008.000000,85062.000000,13690.000000,136978.000000,161820.679853,42.720019
616.000000,-31.000000,978.000000,627.000000,-8.000000,1004.000000,85293.000000,14173.000000,137524.000000,162445.745878,36.414283
616.000000,-31.000000,978.000000,657.000000,-19.000000,1002.000000,86154.000000,14425.000000,138028.000000,163347.240947,49.000000
616.000000,-31.000000,978.000000,637.000000,-32.000000,1026.000000,86595.000000,14404.000000,139036.000000,164429.859019,52.402290
616.000000,-31.000000,978.000000,641.000000,-28.000000,993.000000,87095.000000,14464.000000,139336.000000,164952.318010,29.308702
616.000000,-31.000000,978.000000,641.000000,-28.000000,999.000000,87595.000000,14524.000000,139756.000000,165576.478212,32.787193
616.000000,-31.000000,978.000000,640.000000,-20.000000,1019.000000,88099.000000,14755.000000,140617.000000,166590.169323,48.764741
616.000000,-31.000000,978.000000,663.000000,-18.000000,1033.000000,89039.000000,15015.000000,141717.000000,168038.989032,73.505102
616.000000,-31.000000,978.000000,616.000000,-30.000000,970.000000,89039.000000,15035.000000,141557.000000,167905.863492,8.062258
616.000000,-31.000000,978.000000,659.000000,-32.000000,993.000000,90200.000000,15008.000000,141962.000000,168862.338927,45.552168
616.000000,-31.000000,978.000000,659.000000,-28.000000,1023.000000,91103.000000,15071.000000,142907.000000,170144.944970,62.313722
616.000000,-31.000000,978.000000,669.000000,-23.000000,1027.000000,92216.000000,15239.000000,143936.000000,171620.482091,72.622311
616.000000,-31.000000,978.000000,657.000000,-13.000000,1022.000000,93036.000000,15599.000000,144816.000000,172831.420618,62.777384
616.000000,-31.000000,978.000000,636.000000,-22.000000,972.000000,93436.000000,15779.000000,144696.000000,172962.988391,22.737634
616.000000,-31.000000,978.000000,627.000000,-23.000000,1031.000000,93656.000000,15939.000000,145756.000000,173983.647487,54.717456
616.000000,-31.000000,978.000000,648.000000,-8.000000,989.000000,94296.000000,16399.000000,145976.000000,174555.593989,40.914545
616.000000,-31.000000,978.000000,661.000000,-27.000000,1011.000000,95241.000000,16483.000000,146669.000000,175654.014845,55.946403
616.000000,-31.000000,978.000000,645.000000,-34.000000,1022.000000,95821.000000,16423.000000,147549.000000,176697.725993,52.782573
616.000000,-31.000000,978.000000,658.000000,-34.000000,979.000000,96703.000000,16360.000000,147570.000000,177189.234179,42.118879
616.000000,-31.000000,978.000000,643.000000,-29.000000,1019.000000,97243.000000,16400.000000,148390.000000,178170.573185,49.132474
616.000000,-31.000000,978.000000,641.000000,-27.000000,1024.000000,97743.000000,16480.000000,149310.000000,179217.076611,52.507142
616.000000,-31.000000,978.000000,641.000000,-16.000000,1010.000000,98268.000000,16795.000000,149982.000000,180092.398987,43.289722
616.000000,-31.000000,978.000000,645.000000,-22.000000,980.000000,98877.000000,16984.000000,150024.000000,180478.026255,30.430248
616.000000,-31.000000,978.000000,648.000000,-11.000000,994.000000,99517.000000,17384.000000,150344.000000,181132.976238,40.987803
616.000000,-31.000000,978.000000,636.000000,-23.000000,1020.000000,99917.000000,17544.000000,151184.000000,182065.374745,47.201695
616.000000,-31.000000,978.000000,652.000000,-10.000000,989.000000,100637.000000,17964.000000,151404.000000,182684.652560,43.104524
616.000000,-31.000000,978.000000,646.000000,-17.000000,1014.000000,101237.000000,18244.000000,152124.000000,183639.552061,48.908077
616.000000,-31.000000,978.000000,655.000000,-28.000000,1012.000000,102056.000000,18307.000000,152838.000000,184689.002458,51.826634
616.000000,-31.000000,978.000000,654.000000,-13.000000,1017.000000,102816.000000,18667.000000,153618.000000,185790.410595,57.349804
616.000000,-31.000000,978.000000,640.000000,-20.000000,1031.000000,103320.000000,18898.000000,154731.000000,187012.938496,59.211485
616.000000,-31.000000,978.000000,639.000000,-19.000000,998.000000,103780.000000,19138.000000,155131.000000,187622.436305,32.756679
616.000000,-31.000000,978.000000,642.000000,-26.000000,1009.000000,104300.000000,19238.000000,155751.000000,188432.918157,40.767634
616.000000,-31.000000,978.000000,638.000000,-21.000000,1012.000000,104762.000000,19448.000000,156465.000000,189300.284133,41.713307
616.000000,-31.000000,978.000000,646.000000,-30.000000,1009.000000,105392.000000,19469.000000,157116.000000,190189.255956,43.150898
616.000000,-31.000000,978.000000,634.000000,-25.000000,1012.000000,105788.000000,19601.000000,157864.000000,191040.159760,38.935845
616.000000,-31.000000,978.000000,644.000000,-14.000000,1007.000000,106376.000000,19958.000000,158473.000000,191905.880236,43.749286
616.000000,-31.000000,978.000000,641.000000,-19.000000,1020.000000,106876.000000,20198.000000,159313.000000,192901.712146,50.328918
616.000000,-31.000000,978.000000,648.000000,-9.000000,1011.000000,107516.000000,20638.000000,159973.000000,193847.821832,50.960769
616.000000,-31.000000,978.000000,652.000000,-23.000000,1014.000000,108272.000000,20806.000000,160729.000000,194909.022523,51.536395
616.000000,-31.000000,978.000000,648.000000,-27.000000,1012.000000,108944.000000,20890.000000,161443.000000,195880.140609,46.861498
616.000000,-31.000000,978.000000,648.000000,-26.000000,1005.000000,109584.000000,20990.000000,161983.000000,196691.955720,42.166337
616.000000,-31.000000,978.000000,640.000000,-10.000000,1021.000000,110088.000000,21431.000000,162886.000000,197763.759322,53.535035
616.000000,-31.000000,978.000000,664.000000,-54.000000,826.000000,111096.000000,20948.000000,159694.000000,195661.221390,161.049682
616.000000,-31.000000,978.000000,665.000000,30.000000,1029.000000,112076.000000,22168.000000,160714.000000,197183.771634,93.397002
616.000000,-31.000000,978.000000,602.000000,-63.000000,1008.000000,111782.000000,21496.000000,161344.000000,197456.779767,46.043458
616.000000,-31.000000,978.000000,620.000000,-24.000000,1079.000000,111862.000000,21636.000000,163364.000000,199170.831288,101.321271
616.000000,-31.000000,978.000000,598.000000,-15.000000,1119.000000,111484.000000,21972.000000,166325.000000,201433.504326,143.041952
616.000000,-31.000000,978.000000,624.000000,11.000000,1111.000000,111644.000000,22812.000000,168985.000000,203815.358364,139.703257
616.000000,-31.000000,978.000000,717.000000,44.000000,981.000000,113765.000000,24387.000000,169048.000000,205217.999449,125.837196
616.000000,-31.000000,978.000000,520.000000,-119.000000,1002.000000,111845.000000,22627.000000,169528.000000,204355.151484,132.423563
616.000000,-31.000000,978.000000,630.000000,-47.000000,979.000000,112125.000000,22307.000000,169548.000000,204489.956179,21.283797
616.000000,-31.000000,978.000000,625.000000,-42.000000,955.000000,112305.000000,22087.000000,169088.000000,204183.741610,27.037012
616.000000,-31.000000,978.000000,638.000000,-24.000000,1022.000000,112745.000000,22227.000000,169968.000000,205169.675094,49.689033
616.000000,-31.000000,978.000000,646.000000,-35.000000,1034.000000,113375.000000,22143.000000,171144.000000,206481.165751,63.655322
616.000000,-31.000000,978.000000,639.000000,-20.000000,1013.000000,113835.000000,22363.000000,171844.000000,207337.578191,43.301270
616.000000,-31.000000,978.000000,627.000000,-29.000000,1001.000000,114066.000000,22405.000000,172327.000000,207869.264948,25.573424
616.000000,-31.000000,978.000000,624.000000,-26.000000,1064.000000,114234.000000,22510.000000,174133.000000,209471.736864,86.515894
616.000000,-31.000000,978.000000,623.000000,-24.000000,1059.000000,114381.000000,22657.000000,175834.000000,210983.289305,81.602696
616.000000,-31.000000,978.000000,640.000000,-40.000000,992.000000,114861.000000,22477.000000,176114.000000,211457.811031,29.206164
616.000000,-31.000000,978.000000,627.000000,-37.000000,1023.000000,115081.000000,22357.000000,177014.000000,212314.455952,46.711883
616.000000,-31.000000,978.000000,633.000000,-32.000000,1037.000000,115438.000000,22336.000000,178253.000000,213539.131657,61.408468
616.000000,-31.000000,978.000000,607.000000,-30.000000,1027.000000,115258.000000,22356.000000,179233.000000,214263.075655,49.829710
616.000000,-31.000000,978.000000,653.000000,-22.000000,1017.000000,116035.000000,22545.000000,180052.000000,215385.981331,54.506880
616.000000,-31.000000,978.000000,639.000000,-22.000000,1005.000000,116495.000000,22725.000000,180592.000000,216104.097865,36.592349
616.000000,-31.000000,978.000000,634.000000,-12.000000,1012.000000,116855.000000,23105.000000,181272.000000,216906.592878,42.906876
616.000000,-31.000000,978.000000,618.000000,-6.000000,1000.000000,116895.000000,23605.000000,181712.000000,217349.690577,33.361655
616.000000,-31.000000,978.000000,618.000000,5.000000,1055.000000,116935.000000,24325.000000,183252.000000,218739.103395,85.023526
616.000000,-31.000000,978.000000,639.000000,-8.000000,993.000000,117418.000000,24808.000000,183567.000000,219315.451068,35.818989
616.000000,-31.000000,978.000000,622.000000,-29.000000,1046.000000,117538.000000,24848.000000,184927.000000,220523.467860,68.293484
616.000000,-31.000000,978.000000,638.000000,-33.000000,962.000000,118022.000000,24804.000000,184575.000000,220482.111576,27.276363
616.000000,-31.000000,978.000000,597.000000,-52.000000,1035.000000,117642.000000,24384.000000,185715.000000,221188.337950,63.647467
616.000000,-31.000000,978.000000,647.000000,-31.000000,994.000000,118262.000000,24384.000000,186035.000000,221787.063024,34.885527
616.000000,-31.000000,978.000000,625.000000,3.000000,1045.000000,118442.000000,25064.000000,187375.000000,223083.173021,75.670338
616.000000,-31.000000,978.000000,594.000000,-24.000000,1036.000000,117980.000000,25211.000000,188593.000000,223879.866379,62.425956
616.000000,-31.000000,978.000000,612.000000,-8.000000,1081.000000,117888.000000,25740.000000,190962.000000,225890.711602,105.612499
616.000000,-31.000000,978.000000,555.000000,-21.000000,1110.000000,116607.000000,25950.000000,193734.000000,227603.729550,145.756647
616.000000,-31.000000,978.000000,590.000000,-13.000000,1069.000000,116087.000000,26310.000000,195554.000000,228931.812086,96.337947
616.000000,-31.000000,978.000000,597.000000,-13.000000,1049.000000,115707.000000,26670.000000,196974.000000,229995.990019,75.670338
616.000000,-31.000000,978.000000,618.000000,0.000000,1069.000000,115759.000000,27476.000000,199340.000000,232145.454957,96.156123
616.000000,-31.000000,978.000000,538.000000,-39.000000,1098.000000,114121.000000,27308.000000,201860.000000,233488.306142,143.345736
616.000000,-31.000000,978.000000,559.000000,-46.000000,1061.000000,112810.000000,26963.000000,203769.000000,234467.278805,101.798821
616.000000,-31.000000,978.000000,561.000000,-22.000000,1073.000000,111655.000000,27152.000000,205764.000000,235675.399278,110.140819
616.000000,-31.000000,978.000000,545.000000,-58.000000,1100.000000,110235.000000,26612.000000,208204.000000,237084.076616,143.714996
616.000000,-31.000000,978.000000,579.000000,-43.000000,1077.000000,109458.000000,26360.000000,210283.000000,238526.399908,106.367288
616.000000,-31.000000,978.000000,594.000000,-30.000000,1047.000000,108996.000000,26381.000000,211732.000000,239596.588041,72.429276
616.000000,-31.000000,978.000000,573.000000,-49.000000,1079.000000,108136.000000,26021.000000,213752.000000,240957.266836,111.238483
616.000000,-31.000000,978.000000,557.000000,-61.000000,1087.000000,106897.000000,25391.000000,216041.000000,242374.473019,127.522547
616.000000,-31.000000,978.000000,557.000000,-54.000000,1070.000000,105717.000000,24931.000000,217881.000000,243453.833428,111.687063
616.000000,-31.000000,978.000000,556.000000,-35.000000,1044.000000,104517.000000,24851.000000,219201.000000,244111.560339,89.286057
616.000000,-31.000000,978.000000,547.000000,-70.000000,1029.000000,103137.000000,24071.000000,220221.000000,244364.364528,94.249668
616.000000,-31.000000,978.000000,559.000000,-55.000000,1035.000000,101940.000000,23567.000000,221418.000000,244894.054262,84.107075
616.000000,-31.000000,978.000000,590.000000,-48.000000,1011.000000,101394.000000,23210.000000,222111.000000,245260.562784,45.321077
616.000000,-31.000000,978.000000,581.000000,-53.000000,1023.000000,100659.000000,22748.000000,223056.000000,245771.611300,61.106464
616.000000,-31.000000,978.000000,584.000000,-40.000000,1037.000000,100019.000000,22568.000000,224236.000000,246566.215612,67.720012
616.000000,-31.000000,978.000000,593.000000,-39.000000,1025.000000,99559.000000,22408.000000,225176.000000,247221.244882,52.933921
616.000000,-31.000000,978.000000,595.000000,-34.000000,1043.000000,99139.000000,22348.000000,226476.000000,248232.457590,68.373972
616.000000,-31.000000,978.000000,577.000000,-44.000000,1066.000000,98320.000000,22075.000000,228324.000000,249571.586926,97.128780
616.000000,-31.000000,978.000000,578.000000,-28.000000,1067.000000,97560.000000,22135.000000,230104.000000,250909.869557,96.819420
616.000000,-31.000000,978.000000,591.000000,-12.000000,1081.000000,97060.000000,22515.000000,232164.000000,252641.429146,107.680082
616.000000,-31.000000,978.000000,593.000000,-14.000000,1058.000000,96600.000000,22855.000000,233764.000000,253967.554465,84.958814
616.000000,-31.000000,978.000000,595.000000,-12.000000,1076.000000,96180.000000,23235.000000,235724.000000,255648.707802,102.009803
616.000000,-31.000000,978.000000,557.000000,-34.000000,1116.000000,94941.000000,23172.000000,238622.000000,257858.864399,150.113291
616.000000,-31.000000,978.000000,594.000000,-17.000000,1104.000000,94501.000000,23452.000000,241142.000000,260057.492622,128.670121
616.000000,-31.000000,978.000000,613.000000,-30.000000,846.000000,94441.000000,23472.000000,238502.000000,257591.229022,132.037873
616.000000,-31.000000,978.000000,407.000000,-141.000000,1388.000000,90052.000000,21162.000000,247112.000000,263858.927255,473.160649
616.000000,-31.000000,978.000000,696.000000,15.000000,801.000000,91732.000000,22128.000000,243395.000000,261046.996215,199.612124
616.000000,-31.000000,978.000000,596.000000,-62.000000,1159.000000,91312.000000,21477.000000,247196.000000,264395.547029,184.721412
616.000000,-31.000000,978.000000,618.000000,-43.000000,1019.000000,91354.000000,21225.000000,248057.000000,265194.889072,42.766810
616.000000,-31.000000,978.000000,599.000000,-43.000000,1041.000000,91014.000000,20985.000000,249317.000000,266238.398639,66.347570
616.000000,-31.000000,978.000000,594.000000,-32.000000,1059.000000,90574.000000,20965.000000,250937.000000,267605.229153,83.940455
616.000000,-31.000000,978.000000,575.000000,-32.000000,1053.000000,89754.000000,20945.000000,252437.000000,268735.767084,85.480992
616.000000,-31.000000,978.000000,547.000000,-43.000000,1082.000000,88374.000000,20705.000000,254517.000000,270217.623759,125.383412
616.000000,-31.000000,978.000000,571.000000,-32.000000,1066.000000,87474.000000,20685.000000,256277.000000,271583.266476,98.843310
616.000000,-31.000000,978.000000,578.000000,-16.000000,1047.000000,86676.000000,21000.000000,257726.000000,272720.406373,80.187281
616.000000,-31.000000,978.000000,564.000000,-2.000000,1096.000000,85636.000000,21580.000000,260086.000000,274670.617817,132.170345
616.000000,-31.000000,978.000000,601.000000,4.000000,793.000000,85321.000000,22315.000000,256201.000000,270954.949516,188.878268
616.000000,-31.000000,978.000000,610.000000,-21.000000,1033.000000,85195.000000,22525.000000,257356.000000,272025.135578,56.222771
616.000000,-31.000000,978.000000,576.000000,-16.000000,1062.000000,84395.000000,22825.000000,259036.000000,273391.927361,94.239058
616.000000,-31.000000,978.000000,580.000000,-25.000000,1081.000000,83675.000000,22945.000000,261096.000000,275134.694043,109.274883
616.000000,-31.000000,978.000000,568.000000,-11.000000,1079.000000,82715.000000,23345.000000,263116.000000,276797.380237,113.600176
616.000000,-31.000000,978.000000,577.000000,-5.000000,1102.000000,81896.000000,23891.000000,265720.000000,279078.578714,132.563192
616.000000,-31.000000,978.000000,610.000000,7.000000,1091.000000,81776.000000,24651.000000,267980.000000,281261.917751,119.369175
616.000000,-31.000000,978.000000,736.000000,107.000000,1062.000000,84176.000000,27411.000000,269660.000000,283819.445241,201.246118
616.000000,-31.000000,978.000000,617.000000,64.000000,1424.000000,84197.000000,29406.000000,279026.000000,292932.340859,456.006579
616.000000,-31.000000,978.000000,509.000000,-64.000000,1212.000000,82057.000000,28746.000000,283706.000000,296730.143735,259.410871
616.000000,-31.000000,978.000000,546.000000,-60.000000,949.000000,80657.000000,28166.000000,283126.000000,295735.028498,81.129526
616.000000,-31.000000,978.000000,599.000000,-81.000000,1008.000000,80266.000000,27016.000000,283816.000000,296182.404724,60.737139
616.000000,-31.000000,978.000000,545.000000,-150.000000,1167.000000,78775.000000,24517.000000,287785.000000,299377.337384,234.356566
616.000000,-31.000000,978.000000,-303.000000,106.000000,878.000000,60395.000000,27257.000000,285785.000000,293365.925593,934.521268
616.000000,-31.000000,978.000000,-12.000000,-50.000000,1767.000000,46579.000000,26839.000000,303143.000000,307872.723071,1008.596054
616.000000,-31.000000,978.000000,1301.000000,-448.000000,1589.000000,60279.000000,18499.000000,315363.000000,321604.714846,1008.184011
616.000000,-31.000000,978.000000,1113.000000,-448.000000,1417.000000,70219.000000,10159.000000,324143.000000,331817.114825,783.338369
616.000000,-31.000000,978.000000,683.000000,-19.000000,1165.000000,71559.000000,10399.000000,327883.000000,335761.956408,199.002513
616.000000,-31.000000,978.000000,333.000000,-278.000000,1784.000000,65616.000000,5212.000000,344809.000000,351035.426818,889.232253
616.000000,-31.000000,978.000000,440.000000,-518.000000,1626.000000,61920.000000,-5015.000000,358417.000000,363760.886454,829.487191
616.000000,-31.000000,978.000000,758.000000,-339.000000,1283.000000,64760.000000,-11175.000000,364517.000000,370393.549504,456.128271
616.000000,-31.000000,978.000000,749.000000,-326.000000,1019.000000,67553.000000,-17370.000000,365378.000000,371976.084706,326.182464
616.000000,-31.000000,978.000000,869.000000,-333.000000,866.000000,72613.000000,-23410.000000,363138.000000,371065.874088,409.581494
616.000000,-31.000000,978.000000,722.000000,-327.000000,824.000000,74733.000000,-29330.000000,360058.000000,368899.760847,350.097129
616.000000,-31.000000,978.000000,465.000000,-212.000000,965.000000,71562.000000,-33131.000000,359785.000000,368325.982290,236.074141
616.000000,-31.000000,978.000000,447.000000,-45.000000,711.000000,68013.000000,-33425.000000,354178.000000,362194.774228,316.300490
616.000000,-31.000000,978.000000,215.000000,138.000000,711.000000,59993.000000,-30045.000000,348838.000000,355232.054181,510.539910
616.000000,-31.000000,978.000000,-381.000000,393.000000,424.000000,40053.000000,-21565.000000,337758.000000,340807.509597,1216.840581
616.000000,-31.000000,978.000000,-921.000000,560.000000,421.000000,7776.000000,-9154.000000,326061.000000,326282.144184,1738.361010
616.000000,-31.000000,978.000000,-854.000000,483.000000,650.000000,-21624.000000,1126.000000,319501.000000,320233.905533,1591.439600
616.000000,-31.000000,978.000000,-436.000000,326.000000,896.000000,-43716.000000,8623.000000,317779.000000,320887.733680,1113.946588
616.000000,-31.000000,978.000000,-122.000000,184.000000,1098.000000,-58476.000000,12923.000000,320179.000000,325731.543677,777.990360
616.000000,-31.000000,978.000000,-675.000000,-79.000000,1718.000000,-92042.000000,11675.000000,339419.000000,351871.131169,1488.820003
616.000000,-31.000000,978.000000,-610.000000,-299.000000,2185.000000,-116562.000000,6315.000000,363559.000000,381839.921368,1741.191833
616.000000,-31.000000,978.000000,-644.000000,-214.000000,2184.000000,-143022.000000,2472.000000,388885.000000,414358.475831,1753.717480
616.000000,-31.000000,978.000000,-113.000000,-224.000000,2032.000000,-158331.000000,-1581.000000,411019.000000,440463.191973,1295.996142
616.000000,-31.000000,978.000000,821.000000,-326.000000,1280.000000,-154231.000000,-7481.000000,417059.000000,444726.181153,469.312263
616.000000,-31.000000,978.000000,1501.000000,-14.000000,2879.000000,-135646.000000,-7124.000000,456980.000000,476740.295226,2096.977587
616.000000,-31.000000,978.000000,453.000000,70.000000,2391.000000,-138906.000000,-5104.000000,485240.000000,504756.164155,1425.951963
616.000000,-31.000000,978.000000,319.000000,-192.000000,1618.000000,-144846.000000,-8324.000000,498040.000000,518742.223356,723.691923
616.000000,-31.000000,978.000000,806.000000,-327.000000,1439.000000,-140856.000000,-14540.000000,507721.000000,527098.129552,579.859466
616.000000,-31.000000,978.000000,561.000000,-499.000000,1103.000000,-141956.000000,-23900.000000,510221.000000,530139.778527,487.518205
616.000000,-31.000000,978.000000,643.000000,-428.000000,1117.000000,-141389.000000,-32237.000000,513140.000000,533237.970413,421.496145
616.000000,-31.000000,978.000000,812.000000,-332.000000,716.000000,-137469.000000,-38257.000000,507900.000000,527563.962008,444.590823
616.000000,-31.000000,978.000000,666.000000,-304.000000,918.000000,-136419.000000,-43990.000000,506640.000000,526525.738460,283.952461
616.000000,-31.000000,978.000000,28.000000,-128.000000,1149.000000,-148767.000000,-46027.000000,510231.000000,533465.817442,619.995161
616.000000,-31.000000,978.000000,381.000000,15.000000,928.000000,-153702.000000,-45061.000000,509181.000000,533779.064114,244.624202
616.000000,-31.000000,978.000000,414.000000,34.000000,965.000000,-157742.000000,-43761.000000,508921.000000,534600.923985,212.598213
616.000000,-31.000000,978.000000,-13.000000,310.000000,1169.000000,-170322.000000,-36941.000000,512741.000000,541551.063378,740.542369
616.000000,-31.000000,978.000000,-423.000000,558.000000,1158.000000,-191102.000000,-25161.000000,516341.000000,551145.242750,1207.825318
616.000000,-31.000000,978.000000,-784.000000,489.000000,1007.000000,-221902.000000,-13721.000000,516979.000000,562757.540941,1493.733912
616.000000,-31.000000,978.000000,-833.000000,477.000000,962.000000,-252331.000000,-3053.000000,516643.000000,574978.472483,1535.552344
616.000000,-31.000000,978.000000,-830.000000,503.000000,1176.000000,-281251.000000,7627.000000,520603.000000,591766.659874,1554.115826
616.000000,-31.000000,978.000000,-370.000000,347.000000,848.000000,-300971.000000,15187.000000,518003.000000,599283.985952,1063.945487
616.000000,-31.000000,978.000000,-78.000000,178.000000,947.000000,-315545.000000,19576.000000,517352.000000,606304.344950,725.450205
616.000000,-31.000000,978.000000,-236.000000,113.000000,1241.000000,-332585.000000,22456.000000,522612.000000,619871.242037,903.221457
616.000000,-31.000000,978.000000,-300.000000,19.000000,1625.000000,-350905.000000,23456.000000,535552.000000,640703.088540,1122.570710
616.000000,-31.000000,978.000000,-300.000000,56.000000,1684.000000,-369225.000000,25196.000000,549672.000000,662647.150922,1159.767649
616.000000,-31.000000,978.000000,-497.000000,89.000000,1774.000000,-392598.000000,27716.000000,566388.000000,689707.715488,1373.602927
616.000000,-31.000000,978.000000,75.000000,-97.000000,1721.000000,-403418.000000,26396.000000,581248.000000,708019.822494,921.458626
616.000000,-31.000000,978.000000,841.000000,-262.000000,1737.000000,-398693.000000,21545.000000,597187.000000,718368.017275,824.661749
616.000000,-31.000000,978.000000,918.000000,-514.000000,1904.000000,-392653.000000,11885.000000,615707.000000,730351.108360,1087.183977
616.000000,-31.000000,978.000000,578.000000,-501.000000,1874.000000,-393451.000000,2015.000000,634523.000000,746610.465474,1012.501852
616.000000,-31.000000,978.000000,479.000000,-291.000000,1835.000000,-396328.000000,-3445.000000,652520.000000,763459.299510,905.990066
616.000000,-31.000000,978.000000,657.000000,-416.000000,1695.000000,-395508.000000,-11145.000000,666860.000000,775405.086835,814.858883
616.000000,-31.000000,978.000000,1007.000000,-426.000000,1499.000000,-387297.000000,-19440.000000,677801.000000,780891.205873,761.805093
616.000000,-31.000000,978.000000,1080.000000,-170.000000,766.000000,-377553.000000,-22359.000000,673349.000000,772298.561756,528.735283
616.000000,-31.000000,978.000000,763.000000,-148.000000,801.000000,-374613.000000,-24699.000000,669809.000000,767847.013962,258.122064
616.000000,-31.000000,978.000000,402.000000,-202.000000,843.000000,-379107.000000,-28290.000000,666974.000000,767708.771752,305.388277
616.000000,-31.000000,978.000000,436.000000,-252.000000,883.000000,-382887.000000,-32931.000000,664979.000000,768039.045864,300.443006
616.000000,-31.000000,978.000000,456.000000,-152.000000,1010.000000,-386247.000000,-35472.000000,665651.000000,770413.046095,203.137884
616.000000,-31.000000,978.000000,293.000000,245.000000,1284.000000,-392707.000000,-29952.000000,671771.000000,778711.876495,523.584759
616.000000,-31.000000,978.000000,-188.000000,454.000000,744.000000,-408787.000000,-20252.000000,667091.000000,782641.269774,967.676082
616.000000,-31.000000,978.000000,-504.000000,438.000000,602.000000,-431187.000000,-10872.000000,659571.000000,788082.694515,1271.116438
616.000000,-31.000000,978.000000,-875.000000,421.000000,1101.000000,-462498.000000,-1380.000000,662154.000000,807684.483025,1562.854440
616.000000,-31.000000,978.000000,-462.000000,395.000000,935.000000,-484058.000000,7140.000000,661294.000000,819556.515074,1159.917669
616.000000,-31.000000,978.000000,-265.000000,273.000000,909.000000,-502559.000000,13524.000000,659845.000000,829544.375595,934.525548
616.000000,-31.000000,978.000000,-296.000000,229.000000,971.000000,-520799.000000,18724.000000,659705.000000,840709.743968,948.363327
616.000000,-31.000000,978.000000,-252.000000,196.000000,927.000000,-539027.000000,23491.000000,658634.000000,851410.993449,898.640084
616.000000,-31.000000,978.000000,-335.000000,269.000000,1262.000000,-558047.000000,29491.000000,664314.000000,868100.952589,1036.849555
616.000000,-31.000000,978.000000,-302.000000,121.000000,1443.000000,-577325.000000,32683.000000,674079.000000,888118.703978,1040.217766
616.000000,-31.000000,978.000000,-82.000000,40.000000,1381.000000,-591285.000000,34103.000000,682139.000000,903379.533283,809.106915
616.000000,-31.000000,978.000000,-214.000000,98.000000,1656.000000,-608715.000000,36812.000000,696377.000000,925651.122561,1079.455881
616.000000,-31.000000,978.000000,-286.000000,136.000000,1743.000000,-626755.000000,40152.000000,711677.000000,949167.090379,1194.453013
616.000000,-31.000000,978.000000,-179.000000,87.000000,1734.000000,-642655.000000,42512.000000,726797.000000,971105.863631,1103.397027
616.000000,-31.000000,978.000000,71.000000,99.000000,1776.000000,-654100.000000,45242.000000,743555.000000,991346.400906,975.053332
616.000000,-31.000000,978.000000,660.000000,4.000000,1415.000000,-653176.000000,45977.000000,752732.000000,997676.418148,440.601861
616.000000,-31.000000,978.000000,578.000000,-122.000000,1665.000000,-653974.000000,44066.000000,767159.000000,1009037.529685,694.041785
616.000000,-31.000000,978.000000,724.000000,-216.000000,1018.000000,-651706.000000,40181.000000,767999.000000,1008046.470753,217.919710
616.000000,-31.000000,978.000000,752.000000,-164.000000,1531.000000,-648850.000000,37388.000000,779612.000000,1014987.219421,584.802531
616.000000,-31.000000,978.000000,247.000000,-230.000000,1520.000000,-656230.000000,33408.000000,790452.000000,1027895.068413,685.219673
616.000000,-31.000000,978.000000,302.000000,-336.000000,1770.000000,-662510.000000,27308.000000,806292.000000,1043921.460757,904.922649
616.000000,-31.000000,978.000000,572.000000,-410.000000,1803.000000,-663434.000000,19349.000000,823617.000000,1057763.687619,908.956545
616.000000,-31.000000,978.000000,854.000000,-399.000000,1595.000000,-658674.000000,11989.000000,835957.000000,1064339.833064,756.807109
616.000000,-31.000000,978.000000,903.000000,-173.000000,1099.000000,-652647.000000,9007.000000,838498.000000,1062594.997476,342.306880
616.000000,-31.000000,978.000000,609.000000,-116.000000,948.000000,-652787.000000,7307.000000,837898.000000,1062194.576347,90.410176
616.000000,-31.000000,978.000000,337.000000,-67.000000,858.000000,-658367.000000,6587.000000,835498.000000,1063742.169542,305.838193
616.000000,-31.000000,978.000000,202.000000,-43.000000,899.000000,-666647.000000,6347.000000,833918.000000,1067650.569120,421.640842
616.000000,-31.000000,978.000000,32.000000,-123.000000,1114.000000,-678327.000000,4507.000000,836638.000000,1077084.479055,606.643223
616.000000,-31.000000,978.000000,335.000000,17.000000,883.000000,-683947.000000,5467.000000,834738.000000,1079166.769106,300.482945
616.000000,-31.000000,978.000000,-62.000000,29.000000,967.000000,-698185.000000,6727.000000,834507.000000,1088076.045046,680.738569
616.000000,-31.000000,978.000000,-118.000000,-36.000000,1165.000000,-712865.000000,6627.000000,838247.000000,1100399.226810,757.462870
616.000000,-31.000000,978.000000,-58.000000,116.000000,1028.000000,-727019.000000,9714.000000,839297.000000,1110437.050159,691.653815
616.000000,-31.000000,978.000000,-303.000000,110.000000,1104.000000,-747237.000000,12816.000000,842069.000000,1125880.803987,938.252631
616.000000,-31.000000,978.000000,-64.000000,45.000000,1085.000000,-760837.000000,14336.000000,844209.000000,1136559.412062,692.549637
616.000000,-31.000000,978.000000,-42.000000,159.000000,981.000000,-774655.000000,18326.000000,844272.000000,1145958.734547,684.889042
616.000000,-31.000000,978.000000,-414.000000,144.000000,1221.000000,-795255.000000,21826.000000,849132.000000,1163585.855330,1072.648125
616.000000,-31.000000,978.000000,-439.000000,185.000000,1159.000000,-816355.000000,26146.000000,852752.000000,1180806.958332,1091.989927
616.000000,-31.000000,978.000000,-170.000000,161.000000,1002.000000,-832075.000000,29986.000000,853232.000000,1192163.080977,809.466491
616.000000,-31.000000,978.000000,-130.000000,114.000000,1133.000000,-846995.000000,32886.000000,856332.000000,1204901.038777,775.606859
616.000000,-31.000000,978.000000,-152.000000,2.000000,1192.000000,-863123.000000,33579.000000,860826.000000,1219479.505628,797.940474
616.000000,-31.000000,978.000000,14.000000,63.000000,1159.000000,-875163.000000,35459.000000,864446.000000,1230623.624089,635.610730
616.000000,-31.000000,978.000000,-102.000000,77.000000,1299.000000,-889523.000000,37619.000000,870866.000000,1245421.192467,793.869637
616.000000,-31.000000,978.000000,-189.000000,-8.000000,1590.000000,-906428.000000,38102.000000,883718.000000,1266499.500636,1011.483070
616.000000,-31.000000,978.000000,-69.000000,9.000000,1382.000000,-920128.000000,38902.000000,891798.000000,1281972.142752,796.266915
616.000000,-31.000000,978.000000,130.000000,-120.000000,1179.000000,-929848.000000,37122.000000,895818.000000,1291698.585240,533.402287
616.000000,-31.000000,978.000000,224.000000,-178.000000,1664.000000,-938080.000000,34035.000000,910224.000000,1307539.749989,803.659754
616.000000,-31.000000,978.000000,277.000000,-41.000000,1516.000000,-945199.000000,33825.000000,921522.000000,1320510.536387,635.975628
616.000000,-31.000000,978.000000,-210.000000,51.000000,1683.000000,-962545.000000,35547.000000,936327.000000,1343303.657839,1089.047749
616.000000,-31.000000,978.000000,-73.000000,122.000000,1534.000000,-977014.000000,38760.000000,948003.000000,1361898.814819,898.479827
616.000000,-31.000000,978.000000,143.000000,-137.000000,1345.000000,-986947.000000,36534.000000,955710.000000,1374329.188392,607.991776
616.000000,-31.000000,978.000000,1196.000000,-383.000000,1421.000000,-975347.000000,29494.000000,964570.000000,1372066.671611,810.279581
616.000000,-31.000000,978.000000,982.000000,-677.000000,1328.000000,-968027.000000,16574.000000,971570.000000,1371604.620547,820.836159
616.000000,-31.000000,978.000000,1146.000000,-433.000000,1495.000000,-956897.000000,8132.000000,982427.000000,1371452.080228,842.492136
616.000000,-31.000000,978.000000,931.000000,-222.000000,910.000000,-950282.000000,4121.000000,980999.000000,1365800.827414,374.606460
616.000000,-31.000000,978.000000,470.000000,-179.000000,840.000000,-953348.000000,1013.000000,978101.000000,1365853.213736,249.527554
616.000000,-31.000000,978.000000,580.000000,-138.000000,809.000000,-954104.000000,-1234.000000,974552.000000,1363842.940472,203.238776
616.000000,-31.000000,978.000000,381.000000,-135.000000,840.000000,-958804.000000,-3314.000000,971792.000000,1365172.437561,291.693332
616.000000,-31.000000,978.000000,417.000000,1.000000,946.000000,-962784.000000,-2674.000000,971152.000000,1367514.675620,204.080866
616.000000,-31.000000,978.000000,189.000000,-22.000000,1106.000000,-971751.000000,-2485.000000,973840.000000,1375743.626853,445.863208
616.000000,-31.000000,978.000000,108.000000,-89.000000,1072.000000,-982419.000000,-3703.000000,975814.000000,1384692.661339,519.869214
616.000000,-31.000000,978.000000,250.000000,-101.000000,1033.000000,-989739.000000,-5103.000000,976914.000000,1390672.604219,376.670944
616.000000,-31.000000,978.000000,219.000000,11.000000,1111.000000,-997679.000000,-4263.000000,979574.000000,1398194.114451,420.787357
616.000000,-31.000000,978.000000,38.000000,47.000000,913.000000,-1009239.000000,-2703.000000,978274.000000,1405557.072625,586.850066
616.000000,-31.000000,978.000000,131.000000,-7.000000,976.000000,-1018939.000000,-2223.000000,978234.000000,1412509.605704,485.597570
616.000000,-31.000000,978.000000,204.000000,-146.000000,1298.000000,-1027179.000000,-4523.000000,984634.000000,1422891.868529,534.199401
616.000000,-31.000000,978.000000,249.000000,-248.000000,1316.000000,-1034519.000000,-8863.000000,991394.000000,1432888.752613,544.079038
616.000000,-31.000000,978.000000,45.000000,-179.000000,1435.000000,-1045939.000000,-11823.000000,1000534.000000,1447479.347074,746.186304
616.000000,-31.000000,978.000000,289.000000,-126.000000,1198.000000,-1052479.000000,-13723.000000,1004934.000000,1455263.794137,405.405969
616.000000,-31.000000,978.000000,285.000000,-117.000000,1149.000000,-1059430.000000,-15529.000000,1008525.000000,1462790.398644,382.358471
616.000000,-31.000000,978.000000,346.000000,-166.000000,1157.000000,-1064830.000000,-18229.000000,1012105.000000,1469201.060565,350.950139
616.000000,-31.000000,978.000000,396.000000,-161.000000,1074.000000,-1069450.000000,-20959.000000,1014121.000000,1473975.571311,272.976189
616.000000,-31.000000,978.000000,479.000000,-1003.000000,2249.000000,-1072327.000000,-41371.000000,1040812.000000,1494953.636042,1605.924656
616.000000,-31.000000,978.000000,351.000000,-49.000000,1131.000000,-1077892.000000,-41749.000000,1044025.000000,1501193.639505,306.525692
616.000000,-31.000000,978.000000,438.000000,-107.000000,1102.000000,-1081630.000000,-43345.000000,1046629.000000,1505733.877405,229.860827
616.000000,-31.000000,978.000000,268.000000,-96.000000,1153.000000,-1088938.000000,-44710.000000,1050304.000000,1513579.678894,394.910116
616.000000,-31.000000,978.000000,495.000000,-52.000000,998.000000,-1091358.000000,-45130.000000,1050704.000000,1515611.393689,124.426685
616.000000,-31.000000,978.000000,499.000000,-30.000000,1014.000000,-1093815.000000,-45109.000000,1051460.000000,1517904.544992,122.417319
616.000000,-31.000000,978.000000,473.000000,6.000000,1355.000000,-1096818.000000,-44332.000000,1059377.000000,1525534.227567,404.903692
616.000000,-31.000000,978.000000,404.000000,-1.000000,1976.000000,-1101270.000000,-43702.000000,1080335.000000,1543317.592049,1020.709557
616.000000,-31.000000,978.000000,337.000000,-152.000000,1604.000000,-1106850.000000,-46122.000000,1092855.000000,1556141.450000,695.958332
616.000000,-31.000000,978.000000,394.000000,-389.000000,648.000000,-1111290.000000,-53282.000000,1086255.000000,1554912.975265,535.114941
616.000000,-31.000000,978.000000,401.000000,-80.000000,-18.000000,-1115590.000000,-54262.000000,1066335.000000,1544200.681573,1020.118621
616.000000,-31.000000,978.000000,1021.000000,552.000000,1608.000000,-1107490.000000,-42602.000000,1078935.000000,1546754.590984,949.112217
616.000000,-31.000000,978.000000,719.000000,69.000000,1269.000000,-1105430.000000,-40602.000000,1084755.000000,1549295.781098,324.484206
616.000000,-31.000000,978.000000,462.000000,-184.000000,926.000000,-1108510.000000,-43662.000000,1083715.000000,1550851.053960,223.224103
616.000000,-31.000000,978.000000,475.000000,-147.000000,982.000000,-1111471.000000,-46098.000000,1083799.000000,1553097.898346,182.628037
616.000000,-31.000000,978.000000,692.000000,97.000000,1241.000000,-1109951.000000,-43538.000000,1089059.000000,1555614.439804,302.206883
616.000000,-31.000000,978.000000,591.000000,-35.000000,1001.000000,-1110451.000000,-43618.000000,1089519.000000,1556295.474737,34.205263
616.000000,-31.000000,978.000000,628.000000,20.000000,1070.000000,-1110211.000000,-42598.000000,1091359.000000,1557384.833946,105.872565
616.000000,-31.000000,978.000000,577.000000,-47.000000,1072.000000,-1111030.000000,-42934.000000,1093333.000000,1559361.419987,103.019416
616.000000,-31.000000,978.000000,616.000000,-14.000000,1049.000000,-1111030.000000,-42594.000000,1094753.000000,1560348.051156,73.006849
616.000000,-31.000000,978.000000,604.000000,-31.000000,1270.000000,-1111282.000000,-42594.000000,1100885.000000,1564835.363732,292.246471
616.000000,-31.000000,978.000000,602.000000,-31.000000,1042.000000,-1111562.000000,-42594.000000,1102165.000000,1565934.869624,65.513357
616.000000,-31.000000,978.000000,616.000000,-22.000000,1006.000000,-1111562.000000,-42414.000000,1102725.000000,1566324.185111,29.410882
616.000000,-31.000000,978.000000,615.000000,-19.000000,1008.000000,-1111583.000000,-42162.000000,1103355.000000,1566775.879364,32.326460
616.000000,-31.000000,978.000000,623.000000,-33.000000,1043.000000,-1111436.000000,-42204.000000,1104720.000000,1567634.344518,65.406422
616.000000,-31.000000,978.000000,608.000000,-16.000000,1024.000000,-1111596.000000,-41904.000000,1105640.000000,1568388.160511,49.040799
616.000000,-31.000000,978.000000,628.000000,-18.000000,1027.000000,-1111356.000000,-41644.000000,1106620.000000,1568902.229545,52.096065
616.000000,-31.000000,978.000000,615.000000,-17.000000,1034.000000,-1111382.000000,-41280.000000,1108076.000000,1569938.345955,57.732140
616.000000,-31.000000,978.000000,608.000000,-29.000000,1034.000000,-1111542.000000,-41240.000000,1109196.000000,1570841.214694,56.603887
616.000000,-31.000000,978.000000,614.000000,-33.000000,1032.000000,-1111584.000000,-41282.000000,1110330.000000,1571672.962636,54.074023
616.000000,-31.000000,978.000000,618.000000,-27.000000,1028.000000,-1111544.000000,-41202.000000,1111330.000000,1572349.209826,50.199602
616.000000,-31.000000,978.000000,595.000000,-28.000000,1052.000000,-1111964.000000,-41142.000000,1112810.000000,1573690.788421,76.980517
616.000000,-31.000000,978.000000,621.000000,-12.000000,1018.000000,-1111859.000000,-40743.000000,1113650.000000,1574200.352697,44.564560
616.000000,-31.000000,978.000000,633.000000,-15.000000,1045.000000,-1111519.000000,-40423.000000,1114990.000000,1574900.379830,70.950687
616.000000,-31.000000,978.000000,621.000000,-13.000000,1008.000000,-1111414.000000,-40045.000000,1115620.000000,1575262.729141,35.341194
616.000000,-31.000000,978.000000,629.000000,-20.000000,986.000000,-1111154.000000,-39825.000000,1115780.000000,1575187.052620,18.814888
616.000000,-31.000000,978.000000,616.000000,-20.000000,1074.000000,-1111154.000000,-39605.000000,1117700.000000,1576542.120510,96.628153
616.000000,-31.000000,978.000000,589.000000,-21.000000,1035.000000,-1111721.000000,-39395.000000,1118897.000000,1577785.170571,63.859220
616.000000,-31.000000,978.000000,598.000000,-15.000000,1033.000000,-1112081.000000,-39075.000000,1119997.000000,1578811.035620,60.041652
616.000000,-31.000000,978.000000,588.000000,-21.000000,1068.000000,-1112669.000000,-38865.000000,1121887.000000,1580561.049930,94.783965
616.000000,-31.000000,978.000000,625.000000,-21.000000,1014.000000,-1112489.000000,-38665.000000,1122607.000000,1580940.616783,38.431758
616.000000,-31.000000,978.000000,605.000000,-27.000000,1024.000000,-1112720.000000,-38581.000000,1123573.000000,1581787.146961,47.465777
616.000000,-31.000000,978.000000,610.000000,-23.000000,1014.000000,-1112846.000000,-38413.000000,1124329.000000,1582408.758357,37.363083
616.000000,-31.000000,978.000000,646.000000,-7.000000,998.000000,-1112216.000000,-37909.000000,1124749.000000,1582252.140443,43.312816
616.000000,-31.000000,978.000000,607.000000,-34.000000,1055.000000,-1112396.000000,-37969.000000,1126289.000000,1583475.107887,77.582214
616.000000,-31.000000,978.000000,612.000000,-18.000000,1022.000000,-1112476.000000,-37709.000000,1127169.000000,1584151.120890,46.054316
616.000000,-31.000000,978.000000,622.000000,-24.000000,1011.000000,-1112344.000000,-37555.000000,1127895.000000,1584571.451019,34.263683
616.000000,-31.000000,978.000000,603.000000,-19.000000,1053.000000,-1112617.000000,-37303.000000,1129470.000000,1585878.489481,77.058419
616.000000,-31.000000,978.000000,603.000000,-25.000000,1043.000000,-1112877.000000,-37183.000000,1130770.000000,1586984.116341,66.558245
616.000000,-31.000000,978.000000,595.000000,-24.000000,1049.000000,-1113297.000000,-37043.000000,1132190.000000,1588287.313479,74.370693
616.000000,-31.000000,978.000000,602.000000,-22.000000,1026.000000,-1113577.000000,-36863.000000,1133150.000000,1589163.785831,50.803543
616.000000,-31.000000,978.000000,632.000000,-31.000000,1046.000000,-1113241.000000,-36863.000000,1134578.000000,1589947.056645,69.856997
616.000000,-31.000000,978.000000,631.000000,-38.000000,1008.000000,-1112926.000000,-37010.000000,1135208.000000,1590179.620307,34.263683
616.000000,-31.000000,978.000000,622.000000,-24.000000,1012.000000,-1112806.000000,-36870.000000,1135888.000000,1590577.926126,35.227830
616.000000,-31.000000,978.000000,635.000000,-19.000000,1271.000000,-1112426.000000,-36630.000000,1141748.000000,1594497.368414,293.860511
616.000000,-31.000000,978.000000,608.000000,-11.000000,1051.000000,-1112586.000000,-36230.000000,1143208.000000,1595645.559502,76.111760
616.000000,-31.000000,978.000000,597.000000,-1.000000,1014.000000,-1112985.000000,-35600.000000,1143964.000000,1596451.253099,50.566788
616.000000,-31.000000,978.000000,606.000000,-8.000000,1023.000000,-1113195.000000,-35117.000000,1144909.000000,1597264.201688,51.516987
616.000000,-31.000000,978.000000,601.000000,-15.000000,1064.000000,-1113510.000000,-34781.000000,1146715.000000,1598771.256086,88.752465
616.000000,-31.000000,978.000000,617.000000,-33.000000,1036.000000,-1113490.000000,-34821.000000,1147875.000000,1599590.415627,58.043087
616.000000,-31.000000,978.000000,619.000000,-40.000000,1038.000000,-1113430.000000,-35001.000000,1149075.000000,1600413.943493,60.745370
616.000000,-31.000000,978.000000,641.000000,-34.000000,1028.000000,-1112930.000000,-35061.000000,1150075.000000,1600785.733397,55.982140
616.000000,-31.000000,978.000000,625.000000,-38.000000,1030.000000,-1112741.000000,-35208.000000,1151167.000000,1601442.349332,53.235327
616.000000,-31.000000,978.000000,608.000000,-32.000000,1025.000000,-1112909.000000,-35229.000000,1152154.000000,1602269.129840,47.686476
616.000000,-31.000000,978.000000,617.000000,-20.000000,1017.000000,-1112889.000000,-35009.000000,1152934.000000,1602811.394007,40.533936
616.000000,-31.000000,978.000000,608.000000,-3.000000,1052.000000,-1113057.000000,-34421.000000,1154488.000000,1604033.426283,79.523581
616.000000,-31.000000,978.000000,607.000000,-14.000000,1025.000000,-1113246.000000,-34064.000000,1155475.000000,1604867.436344,50.783856
616.000000,-31.000000,978.000000,598.000000,-9.000000,1037.000000,-1113606.000000,-33624.000000,1156655.000000,1605957.560347,65.490457
616.000000,-31.000000,978.000000,617.000000,-15.000000,1038.000000,-1113585.000000,-33288.000000,1157915.000000,1606843.735524,62.104750
616.000000,-31.000000,978.000000,630.000000,-21.000000,1026.000000,-1113291.000000,-33078.000000,1158923.000000,1607362.287941,50.990195
616.000000,-31.000000,978.000000,624.000000,-38.000000,1037.000000,-1113123.000000,-33225.000000,1160162.000000,1608142.586961,59.949979
616.000000,-31.000000,978.000000,619.000000,-39.000000,1002.000000,-1113060.000000,-33393.000000,1160666.000000,1608466.107695,25.475478
616.000000,-31.000000,978.000000,614.000000,-14.000000,1025.000000,-1113100.000000,-33053.000000,1161606.000000,1609165.190416,50.019996
616.000000,-31.000000,978.000000,589.000000,-25.000000,1052.000000,-1113667.000000,-32927.000000,1163160.000000,1610676.739702,79.000000
616.000000,-31.000000,978.000000,600.000000,-12.000000,1035.000000,-1113987.000000,-32547.000000,1164300.000000,1611713.632559,62.177166
616.000000,-31.000000,978.000000,587.000000,-29.000000,1026.000000,-1114596.000000,-32505.000000,1165308.000000,1612861.913837,56.115951
616.000000,-31.000000,978.000000,618.000000,-21.000000,1029.000000,-1114556.000000,-32305.000000,1166328.000000,1613567.381222,52.009614
616.000000,-31.000000,978.000000,621.000000,-30.000000,1025.000000,-1114456.000000,-32285.000000,1167268.000000,1614177.524619,47.275787
616.000000,-31.000000,978.000000,628.000000,-41.000000,1018.000000,-1114204.000000,-32495.000000,1168108.000000,1614615.365437,42.941821
616.000000,-31.000000,978.000000,617.000000,-20.000000,1028.000000,-1114184.000000,-32275.000000,1169108.000000,1615320.766023,51.205468
616.000000,-31.000000,978.000000,638.000000,-22.000000,1041.000000,-1113700.000000,-32077.000000,1170494.000000,1615986.642261,67.334983
616.000000,-31.000000,978.000000,606.000000,-22.000000,1044.000000,-1113910.000000,-31888.000000,1171880.000000,1617131.740782,67.357256
616.000000,-31.000000,978.000000,602.000000,3.000000,1026.000000,-1114190.000000,-31208.000000,1172840.000000,1618007.095462,60.464866
616.000000,-31.000000,978.000000,616.000000,-25.000000,1035.000000,-1114190.000000,-31088.000000,1173980.000000,1618831.325446,57.314920
616.000000,-31.000000,978.000000,624.000000,-22.000000,1039.000000,-1114030.000000,-30908.000000,1175200.000000,1619602.786292,62.177166
616.000000,-31.000000,978.000000,617.000000,-42.000000,1019.000000,-1114008.000000,-31150.000000,1176102.000000,1620246.913581,42.461747
616.000000,-31.000000,978.000000,625.000000,-30.000000,1042.000000,-1113828.000000,-31130.000000,1177382.000000,1621052.209032,64.637450
616.000000,-31.000000,978.000000,615.000000,-18.000000,1031.000000,-1113848.000000,-30870.000000,1178442.000000,1621831.024296,54.580216
616.000000,-31.000000,978.000000,594.000000,-2.000000,1048.000000,-1114310.000000,-30261.000000,1179912.000000,1623205.110873,78.898669
616.000000,-31.000000,978.000000,597.000000,-11.000000,1022.000000,-1114709.000000,-29841.000000,1180836.000000,1624142.942865,51.932649
616.000000,-31.000000,978.000000,610.000000,-15.000000,1014.000000,-1114829.000000,-29521.000000,1181556.000000,1624742.985773,39.849718
616.000000,-31.000000,978.000000,609.000000,-23.000000,1028.000000,-1114969.000000,-29361.000000,1182556.000000,1625563.481510,51.117512
616.000000,-31.000000,978.000000,623.000000,-39.000000,1016.000000,-1114780.000000,-29577.000000,1183582.000000,1626184.367793,39.458839
616.000000,-31.000000,978.000000,631.000000,-34.000000,1033.000000,-1114465.000000,-29640.000000,1184737.000000,1626810.537522,57.087652
616.000000,-31.000000,978.000000,607.000000,-36.000000,1037.000000,-1114654.000000,-29745.000000,1185976.000000,1627844.395917,59.891569
616.000000,-31.000000,978.000000,620.000000,-24.000000,1047.000000,-1114574.000000,-29605.000000,1187356.000000,1628792.782473,69.469418
616.000000,-31.000000,978.000000,606.000000,-24.000000,1028.000000,-1114834.000000,-29423.000000,1188656.000000,1629915.226882,51.468437
616.000000,-31.000000,978.000000,612.000000,-12.000000,1020.000000,-1114918.000000,-29024.000000,1189538.000000,1630608.841122,46.270941
616.000000,-31.000000,978.000000,725.000000,-81.000000,80.000000,-1112629.000000,-30074.000000,1170680.000000,1615344.978485,905.971854
616.000000,-31.000000,978.000000,924.000000,536.000000,1186.000000,-1106469.000000,-18734.000000,1174840.000000,1613962.092590,677.950588
616.000000,-31.000000,978.000000,122.000000,-655.000000,1199.000000,-1116843.000000,-31838.000000,1179481.000000,1624662.233898,825.986077
616.000000,-31.000000,978.000000,-270.000000,-533.000000,1590.000000,-1135449.000000,-42380.000000,1192333.000000,1647027.163981,1188.084172
616.000000,-31.000000,978.000000,1875.000000,721.000000,1450.000000,-1109010.000000,-26588.000000,1202245.000000,1635849.364052,1540.574244
616.000000,-31.000000,978.000000,434.000000,-124.000000,1386.000000,-1112832.000000,-28541.000000,1210813.000000,1644772.862700,456.329925
616.000000,-31.000000,978.000000,356.000000,-104.000000,1242.000000,-1118032.000000,-30001.000000,1216093.000000,1652203.921335,377.657252
616.000000,-31.000000,978.000000,382.000000,-136.000000,1383.000000,-1122712.000000,-32101.000000,1224193.000000,1661373.290502,479.380851
616.000000,-31.000000,978.000000,446.000000,-235.000000,1228.000000,-1126112.000000,-36181.000000,1229193.000000,1667438.974162,364.713586
616.000000,-31.000000,978.000000,741.000000,-441.000000,1196.000000,-1123487.000000,-44791.000000,1233771.000000,1669257.365804,480.883562
616.000000,-31.000000,978.000000,871.000000,-501.000000,1428.000000,-1118132.000000,-54661.000000,1243221.000000,1672963.074663,698.874095
616.000000,-31.000000,978.000000,1106.000000,-764.000000,1924.000000,-1107842.000000,-70054.000000,1263087.000000,1681549.948544,1293.176322
616.000000,-31.000000,978.000000,1245.000000,-621.000000,1737.000000,-1095262.000000,-81854.000000,1278267.000000,1685308.710370,1148.835062
616.000000,-31.000000,978.000000,829.000000,-430.000000,1555.000000,-1091002.000000,-89834.000000,1289807.000000,1691732.132700,733.143233
616.000000,-31.000000,978.000000,638.000000,-168.000000,801.000000,-1090540.000000,-92711.000000,1286090.000000,1688757.030843,224.904424
616.000000,-31.000000,978.000000,-66.000000,377.000000,-437.000000,-1104862.000000,-84143.000000,1256375.000000,1675194.980926,1622.902646
616.000000,-31.000000,978.000000,-1025.000000,1187.000000,-580.000000,-1139323.000000,-58565.000000,1223657.000000,1672968.383205,2569.779952
616.000000,-31.000000,978.000000,-821.000000,828.000000,-247.000000,-1168063.000000,-41385.000000,1199157.000000,1674533.188934,2074.481863
616.000000,-31.000000,978.000000,-123.000000,-120.000000,1235.000000,-1182843.000000,-43165.000000,1204297.000000,1688582.850820,787.458570
616.000000,-31.000000,978.000000,716.000000,-1295.000000,2350.000000,-1180743.000000,-69709.000000,1233109.000000,1708675.271259,1868.175581
616.000000,-31.000000,978.000000,1298.000000,-2029.000000,3178.000000,-1166421.000000,-111667.000000,1279309.000000,1734831.111553,3049.119217
616.000000,-31.000000,978.000000,1383.000000,-1773.000000,2959.000000,-1150314.000000,-148249.000000,1320910.000000,1757840.519699,2747.219321
616.000000,-31.000000,978.000000,979.000000,-935.000000,2216.000000,-1143054.000000,-166329.000000,1345670.000000,1773433.261236,1575.318698
616.000000,-31.000000,978.000000,325.000000,87.000000,382.000000,-1148874.000000,-163969.000000,1333750.000000,1767961.075176,673.662378
616.000000,-31.000000,978.000000,-1556.000000,2057.000000,-1198.000000,-1192314.000000,-122209.000000,1290230.000000,1761034.118686,3716.490818
616.000000,-31.000000,978.000000,-2080.000000,2011.000000,-283.000000,-1246234.000000,-81369.000000,1265010.000000,1777630.556954,3609.473784
616.000000,-31.000000,978.000000,-1209.000000,277.000000,534.000000,-1282734.000000,-75209.000000,1256130.000000,1796921.112719,1903.319469
616.000000,-31.000000,978.000000,950.000000,-2460.000000,2598.000000,-1275720.000000,-126218.000000,1290150.000000,1818757.687111,2938.706688
616.000000,-31.000000,978.000000,1625.000000,-2352.000000,3175.000000,-1254531.000000,-174959.000000,1336287.000000,1841228.293290,3351.407316
616.000000,-31.000000,978.000000,1095.000000,-1711.000000,2663.000000,-1244951.000000,-208559.000000,1369987.000000,1862864.522463,2427.151829
616.000000,-31.000000,978.000000,475.000000,-1367.000000,1658.000000,-1247771.000000,-235279.000000,1383587.000000,1877924.828861,1505.714780
616.000000,-31.000000,978.000000,-146.000000,539.000000,193.000000,-1263011.000000,-223879.000000,1367887.000000,1875215.570949,1233.600016
616.000000,-31.000000,978.000000,-1987.000000,2596.000000,-1560.000000,-1315071.000000,-171339.000000,1317127.000000,1869115.384906,4485.329642
616.000000,-31.000000,978.000000,-1457.000000,2091.000000,-1362.000000,-1360677.000000,-124655.000000,1265647.000000,1862483.045819,3778.334686
616.000000,-31.000000,978.000000,-666.000000,10.000000,16.000000,-1387599.000000,-123794.000000,1245445.000000,1868659.730198,1603.324359
616.000000,-31.000000,978.000000,1170.000000,-1139.000000,2478.000000,-1375965.000000,-147062.000000,1276945.000000,1882948.604209,1945.399702
616.000000,-31.000000,978.000000,2186.000000,-2598.000000,3428.000000,-1344565.000000,-198402.000000,1325945.000000,1898775.535932,3880.320734
616.000000,-31.000000,978.000000,1264.000000,-1881.000000,2794.000000,-1330957.000000,-237252.000000,1364081.000000,1920534.306362,2672.126494
616.000000,-31.000000,978.000000,347.000000,-968.000000,1583.000000,-1336337.000000,-255992.000000,1376181.000000,1935252.600152,1147.325150
616.000000,-31.000000,978.000000,-537.000000,369.000000,-228.000000,-1360550.000000,-247592.000000,1350855.000000,1933185.798621,1715.763678
616.000000,-31.000000,978.000000,-1682.000000,2047.000000,-899.000000,-1406510.000000,-206032.000000,1313315.000000,1935333.525351,3622.432470
616.000000,-31.000000,978.000000,-1327.000000,1800.000000,-1078.000000,-1447313.000000,-167581.000000,1270139.000000,1932886.802389,3369.710077
616.000000,-31.000000,978.000000,-460.000000,374.000000,-331.000000,-1469909.000000,-159076.000000,1242650.000000,1931350.994656,1742.206073
616.000000,-31.000000,978.000000,251.000000,-1266.000000,1477.000000,-1477209.000000,-183776.000000,1252630.000000,1945508.150781,1381.104992
616.000000,-31.000000,978.000000,1009.000000,-2209.000000,2984.000000,-1468956.000000,-229514.000000,1294756.000000,1971522.636357,2987.000000
616.000000,-31.000000,978.000000,1360.000000,-2491.000000,3372.000000,-1453332.000000,-281174.000000,1345030.000000,2000084.603561,3512.317184
616.000000,-31.000000,978.000000,738.000000,-1774.000000,2257.000000,-1450770.000000,-317777.000000,1371889.000000,2021829.677038,2165.357707
616.000000,-31.000000,978.000000,-73.000000,47.000000,387.000000,-1464550.000000,-316217.000000,1360069.000000,2023533.438901,911.090555
616.000000,-31.000000,978.000000,-1486.000000,1985.000000,-954.000000,-1506590.000000,-275897.000000,1321429.000000,2022895.742432,3495.037053
616.000000,-31.000000,978.000000,-1415.000000,2157.000000,-1599.000000,-1547210.000000,-232137.000000,1269889.000000,2015034.600991,3943.758867
616.000000,-31.000000,978.000000,-880.000000,750.000000,-634.000000,-1578626.000000,-215736.000000,1236037.000000,2016529.081105,2333.778267
616.000000,-31.000000,978.000000,294.000000,-1622.000000,810.000000,-1585388.000000,-249147.000000,1232509.000000,2023513.719557,1631.928001
616.000000,-31.000000,978.000000,1260.000000,-2386.000000,3217.000000,-1572508.000000,-296247.000000,1277289.000000,2047440.080831,3312.685014
616.000000,-31.000000,978.000000,1042.000000,-2323.000000,3706.000000,-1563562.000000,-344379.000000,1334577.000000,2084326.939905,3588.415249
616.000000,-31.000000,978.000000,533.000000,-1616.000000,3016.000000,-1565305.000000,-377664.000000,1377375.000000,2118955.339441,2583.129497
616.000000,-31.000000,978.000000,125.000000,-630.000000,1567.000000,-1575125.000000,-389644.000000,1389155.000000,2136022.665232,973.038026
616.000000,-31.000000,978.000000,-579.000000,872.000000,-856.000000,-1600220.000000,-370681.000000,1350641.000000,2126579.310311,2367.908360
616.000000,-31.000000,978.000000,-1748.000000,1918.000000,-1722.000000,-1649864.000000,-329752.000000,1293941.000000,2122515.232332,4083.760155
616.000000,-31.000000,978.000000,-1005.000000,607.000000,-682.000000,-1683905.000000,-316354.000000,1259081.000000,2126241.018065,2406.301103
616.000000,-31.000000,978.000000,67.000000,-1467.000000,668.000000,-1695434.000000,-346510.000000,1252571.000000,2136234.944592,1568.310237
616.000000,-31.000000,978.000000,979.000000,-2178.000000,2948.000000,-1688174.000000,-389450.000000,1291971.000000,2161201.476405,2936.371570
616.000000,-31.000000,978.000000,1051.000000,-2316.000000,3522.000000,-1679039.000000,-437435.000000,1345395.000000,2195588.542685,3447.083695
616.000000,-31.000000,978.000000,1010.000000,-1674.000000,2754.000000,-1671159.000000,-470295.000000,1380915.000000,2218304.764348,2451.297820
616.000000,-31.000000,978.000000,181.000000,-708.000000,1518.000000,-1680294.000000,-484512.000000,1392255.000000,2235288.301228,969.099582
616.000000,-31.000000,978.000000,-845.000000,1137.000000,-643.000000,-1709514.000000,-461152.000000,1359835.000000,2232543.506972,2475.153733
616.000000,-31.000000,978.000000,-1746.000000,1485.000000,-3358.000000,-1756754.000000,-430832.000000,1273115.000000,2211927.356846,5165.093997
616.000000,-31.000000,978.000000,-1043.000000,902.000000,-203.000000,-1789934.000000,-412172.000000,1249495.000000,2221483.116516,2239.984598
616.000000,-31.000000,978.000000,-281.000000,-1093.000000,2064.000000,-1812359.000000,-438722.000000,1276645.000000,2259854.994063,1764.043367
616.000000,-31.000000,978.000000,837.000000,-2208.000000,3200.000000,-1807939.000000,-482262.000000,1321085.000000,2290520.823217,3118.566017
616.000000,-31.000000,978.000000,824.000000,-2078.000000,3188.000000,-1803779.000000,-523202.000000,1365285.000000,2321930.693382,3019.531917
616.000000,-31.000000,978.000000,374.000000,-1353.000000,2483.000000,-1808861.000000,-550964.000000,1396890.000000,2350923.460838,2017.739577
616.000000,-31.000000,978.000000,-207.000000,-194.000000,855.000000,-1825321.000000,-554224.000000,1394430.000000,2362921.077843,847.954598
616.000000,-31.000000,978.000000,-1098.000000,1610.000000,-3438.000000,-1861315.000000,-519763.000000,1301694.000000,2330033.127453,5013.155992
616.000000,-31.000000,978.000000,-1240.000000,998.000000,-1352.000000,-1898435.000000,-499183.000000,1255094.000000,2329914.175576,3151.583253
616.000000,-31.000000,978.000000,-500.000000,-415.000000,292.000000,-1920755.000000,-506863.000000,1241374.000000,2342481.436142,1365.103659
616.000000,-31.000000,978.000000,608.000000,-1205.000000,4363.000000,-1920915.000000,-530343.000000,1309074.000000,2384292.950195,3582.815234
616.000000,-31.000000,978.000000,1049.000000,-2138.000000,3375.000000,-1912255.000000,-572483.000000,1357014.000000,2413699.021525,3220.643880
616.000000,-31.000000,978.000000,842.000000,-1910.000000,2639.000000,-1907735.000000,-610063.000000,1390234.000000,2438109.978846,2518.062350
616.000000,-31.000000,978.000000,181.000000,-1213.000000,1851.000000,-1916870.000000,-634885.000000,1408567.000000,2462017.577844,1532.474470
616.000000,-31.000000,978.000000,-488.000000,280.000000,-5.000000,-1940054.000000,-628354.000000,1387924.000000,2466773.459807,1510.571415
616.000000,-31.000000,978.000000,-1323.000000,1359.000000,-2135.000000,-1980773.000000,-599164.000000,1322551.000000,2455931.661107,3922.064507
616.000000,-31.000000,978.000000,-1188.000000,1194.000000,-1331.000000,-2018657.000000,-573439.000000,1274062.000000,2455003.533646,3175.928526
616.000000,-31.000000,978.000000,-599.000000,41.000000,475.000000,-2042957.000000,-571999.000000,1264002.000000,2469525.706660,1316.973045
616.000000,-31.000000,978.000000,263.000000,-2086.000000,2955.000000,-2050370.000000,-615154.000000,1305519.000000,2507351.479146,2873.353964
616.000000,-31.000000,978.000000,1016.000000,-2082.000000,3307.000000,-2042370.000000,-656174.000000,1352099.000000,2535746.683125,3129.032119
616.000000,-31.000000,978.000000,670.000000,-1705.000000,2705.000000,-2041236.000000,-691328.000000,1388366.000000,2563618.333769,2405.768276
616.000000,-31.000000,978.000000,128.000000,-820.000000,525.000000,-2051484.000000,-707897.000000,1378853.000000,2571174.898850,1032.411740
616.000000,-31.000000,978.000000,-938.000000,1485.000000,-783.000000,-2084118.000000,-676061.000000,1341872.000000,2569285.265989,2795.405695
616.000000,-31.000000,978.000000,-1253.000000,1299.000000,-856.000000,-2123367.000000,-648131.000000,1303358.000000,2574393.770583,2936.940074
616.000000,-31.000000,978.000000,-668.000000,95.000000,-18.000000,-2149047.000000,-645611.000000,1283438.000000,2585039.587970,1629.892021
616.000000,-31.000000,978.000000,151.000000,-800.000000,2392.000000,-2158812.000000,-661760.000000,1313132.000000,2612032.005617,1675.405026
616.000000,-31.000000,978.000000,754.000000,-1968.000000,2880.000000,-2156052.000000,-700500.000000,1351172.000000,2639114.671682,2718.201060
616.000000,-31.000000,978.000000,-16.000000,-1809.000000,3005.000000,-2169324.000000,-737838.000000,1393739.000000,2681954.498373,2769.374839
616.000000,-31.000000,978.000000,320.000000,-1405.000000,2058.000000,-2175244.000000,-765318.000000,1415339.000000,2705657.514465,1772.538293
616.000000,-31.000000,978.000000,-219.000000,-621.000000,1124.000000,-2191944.000000,-777118.000000,1418259.000000,2723965.762659,1032.783133
616.000000,-31.000000,978.000000,-985.000000,852.000000,-562.000000,-2225565.000000,-758575.000000,1385919.000000,2729349.203457,2390.499948
616.000000,-31.000000,978.000000,-1418.000000,1027.000000,-1065.000000,-2266245.000000,-737415.000000,1345059.000000,2736572.855915,3070.890587
616.000000,-31.000000,978.000000,-1043.000000,20.000000,77.000000,-2301084.000000,-736344.000000,1326138.000000,2756053.710731,1888.566388
616.000000,-31.000000,978.000000,190.000000,-498.000000,3074.000000,-2310030.000000,-746151.000000,1370154.000000,2787526.125334,2189.242106
616.000000,-31.000000,978.000000,1085.000000,-2375.000000,3663.000000,-2300181.000000,-795375.000000,1426539.000000,2821075.600176,3594.930041
616.000000,-31.000000,978.000000,1294.000000,-2285.000000,3267.000000,-2285943.000000,-842709.000000,1474608.000000,2847834.723363,3283.248544
616.000000,-31.000000,978.000000,666.000000,-1300.000000,1970.000000,-2284893.000000,-869358.000000,1495440.000000,2865808.812048,1611.497751
616.000000,-31.000000,978.000000,71.000000,-465.000000,570.000000,-2296338.000000,-878472.000000,1486872.000000,2873268.106079,807.369184
616.000000,-31.000000,978.000000,-1062.000000,915.000000,-589.000000,-2329898.000000,-859552.000000,1455532.000000,2878511.374675,2483.161090
616.000000,-31.000000,978.000000,-1480.000000,1154.000000,-1459.000000,-2373914.000000,-834667.000000,1404355.000000,2881726.851440,3425.844421
616.000000,-31.000000,978.000000,-947.000000,665.000000,65.000000,-2405174.000000,-820747.000000,1386095.000000,2894779.258823,1939.317921
616.000000,-31.000000,978.000000,-620.000000,-568.000000,2727.000000,-2429894.000000,-831487.000000,1421075.000000,2935167.735928,2207.955163
616.000000,-31.000000,978.000000,774.000000,-2144.000000,2998.000000,-2426734.000000,-873747.000000,1461475.000000,2964520.349465,2927.478950
616.000000,-31.000000,978.000000,994.000000,-2237.000000,2795.000000,-2418796.000000,-920073.000000,1499632.000000,2990987.220028,2882.847377
616.000000,-31.000000,978.000000,701.000000,-1628.000000,2193.000000,-2417096.000000,-952013.000000,1523932.000000,3011818.481584,2008.446912
616.000000,-31.000000,978.000000,15.000000,-637.000000,1022.000000,-2429116.000000,-964133.000000,1524812.000000,3025757.528040,854.618628
616.000000,-31.000000,978.000000,-1091.000000,876.000000,-562.000000,-2464963.000000,-945086.000000,1492472.000000,3032606.603163,2471.456655
616.000000,-31.000000,978.000000,-1673.000000,905.000000,-2690.000000,-2510743.000000,-926366.000000,1419112.000000,3029168.738540,4423.781301
616.000000,-31.000000,978.000000,-1043.000000,724.000000,-1003.000000,-2545582.000000,-910511.000000,1377511.000000,3034230.471630,2691.963410
616.000000,-31.000000,978.000000,-379.000000,-522.000000,327.000000,-2565482.000000,-920331.000000,1364491.000000,3048039.161652,1286.431887
616.000000,-31.000000,978.000000,532.000000,-1557.000000,4025.000000,-2567162.000000,-950851.000000,1425431.000000,3086469.163009,3408.803456
616.000000,-31.000000,978.000000,1078.000000,-2205.000000,3517.000000,-2557460.000000,-996505.000000,1478750.000000,3117743.643907,3374.350456
616.000000,-31.000000,978.000000,888.000000,-1829.000000,2152.000000,-2552020.000000,-1032465.000000,1502230.000000,3136157.685692,2164.500866
616.000000,-31.000000,978.000000,206.000000,-671.000000,900.000000,-2560630.000000,-1045905.000000,1500592.000000,3146826.912366,764.057589
616.000000,-31.000000,978.000000,-923.000000,828.000000,-578.000000,-2592949.000000,-1027866.000000,1467916.000000,3151931.219683,2351.071671
616.000000,-31.000000,978.000000,-1685.000000,1094.000000,-2519.000000,-2641270.000000,-1004241.000000,1394479.000000,3151091.696606,4334.655119
616.000000,-31.000000,978.000000,-968.000000,816.000000,-1179.000000,-2672950.000000,-987301.000000,1351339.000000,3153655.348960,2806.975953
616.000000,-31.000000,978.000000,-487.000000,-141.000000,151.000000,-2695010.000000,-989501.000000,1334799.000000,3166051.089212,1382.981562
616.000000,-31.000000,978.000000,301.000000,-1194.000000,3817.000000,-2701310.000000,-1012761.000000,1391579.000000,3203006.817424,3084.106840
616.000000,-31.000000,978.000000,1395.000000,-2339.000000,3381.000000,-2685730.000000,-1058921.000000,1439639.000000,3225991.284468,3421.712145
616.000000,-31.000000,978.000000,701.000000,-2120.000000,2575.000000,-2683945.000000,-1102790.000000,1473176.000000,3254220.962704,2630.884832
616.000000,-31.000000,978.000000,748.000000,-852.000000,1346.000000,-2681305.000000,-1119210.000000,1480536.000000,3260983.651358,909.334372
616.000000,-31.000000,978.000000,-772.000000,963.000000,-589.000000,-2709065.000000,-1099330.000000,1449196.000000,3263085.758839,2317.340933
616.000000,-31.000000,978.000000,-1814.000000,1461.000000,-3299.000000,-2757665.000000,-1069490.000000,1363656.000000,3257005.188614,5140.398136
616.000000,-31.000000,978.000000,-1150.000000,1101.000000,-1370.000000,-2792985.000000,-1046850.000000,1316696.000000,3260421.520163,3148.536803
616.000000,-31.000000,978.000000,-168.000000,-167.000000,84.000000,-2809449.000000,-1049706.000000,1297922.000000,3267948.574889,1196.824131
616.000000,-31.000000,978.000000,597.000000,-895.000000,4520.000000,-2809829.000000,-1066986.000000,1368762.000000,3302591.035245,3645.904689
616.000000,-31.000000,978.000000,1313.000000,-2435.000000,3414.000000,-2795192.000000,-1117470.000000,1419918.000000,3328363.658690,3492.724009
616.000000,-31.000000,978.000000,1050.000000,-2019.000000,3012.000000,-2786512.000000,-1157230.000000,1460598.000000,3352189.868824,2877.091587
616.000000,-31.000000,978.000000,590.000000,-1265.000000,1927.000000,-2787032.000000,-1181910.000000,1479578.000000,3369511.785884,1556.930634
616.000000,-31.000000,978.000000,-165.000000,-38.000000,-611.000000,-2802652.000000,-1182050.000000,1447798.000000,3368711.843481,1770.573636
616.000000,-31.000000,978.000000,-1567.000000,1532.000000,-2790.000000,-2846312.000000,-1150790.000000,1372438.000000,3362944.496909,4626.692339
616.000000,-31.000000,978.000000,-1258.000000,922.000000,-934.000000,-2883792.000000,-1131730.000000,1334198.000000,3373003.616270,2841.800310
616.000000,-31.000000,978.000000,-298.000000,-396.000000,59.000000,-2902986.000000,-1139395.000000,1314899.000000,3384450.924806,1346.544466
616.000000,-31.000000,978.000000,955.000000,-1951.000000,3144.000000,-2895867.000000,-1179715.000000,1360385.000000,3410046.995444,2914.254107
616.000000,-31.000000,978.000000,1226.000000,-2521.000000,4051.000000,-2883667.000000,-1229515.000000,1421845.000000,3442221.042603,4001.940654
616.000000,-31.000000,978.000000,1603.000000,-1846.000000,2739.000000,-2863927.000000,-1265815.000000,1457065.000000,3453607.373426,2714.685065
616.000000,-31.000000,978.000000,657.000000,-1165.000000,1795.000000,-2863107.000000,-1288495.000000,1473405.000000,3468216.162885,1398.258202
616.000000,-31.000000,978.000000,-394.000000,180.000000,162.000000,-2884317.000000,-1284064.000000,1456269.000000,3476898.663025,1315.475959
616.000000,-31.000000,978.000000,-1418.000000,1536.000000,-2578.000000,-2927031.000000,-1251157.000000,1381593.000000,3470115.780671,4386.089488
616.000000,-31.000000,978.000000,-1355.000000,782.000000,-1026.000000,-2966451.000000,-1234897.000000,1341513.000000,3482019.423435,2926.059808
616.000000,-31.000000,978.000000,-722.000000,-341.000000,242.000000,-2994549.000000,-1241407.000000,1326057.000000,3502405.205041,1558.216930
616.000000,-31.000000,978.000000,686.000000,-1118.000000,4611.000000,-2993079.000000,-1264234.000000,1402350.000000,3538840.916105,3792.777083
616.000000,-31.000000,978.000000,1366.000000,-2381.000000,3494.000000,-2978079.000000,-1311234.000000,1452670.000000,3563500.983850,3523.528913
616.000000,-31.000000,978.000000,1045.000000,-1896.000000,2920.000000,-2969499.000000,-1348534.000000,1491510.000000,3586233.447540,2726.468412
616.000000,-31.000000,978.000000,552.000000,-1055.000000,1614.000000,-2970843.000000,-1370038.000000,1504866.000000,3601046.227147,1207.132139
616.000000,-31.000000,978.000000,-409.000000,138.000000,-97.000000,-2992368.000000,-1366489.000000,1482291.000000,3608149.808867,1494.928426
616.000000,-31.000000,978.000000,-1602.000000,1240.000000,-1028.000000,-3036728.000000,-1341069.000000,1442171.000000,3619397.767859,3249.461648
616.000000,-31.000000,978.000000,-1190.000000,915.000000,-792.000000,-3074654.000000,-1321203.000000,1405001.000000,3629476.876483,2699.898517
616.000000,-31.000000,978.000000,-534.000000,96.000000,-12.000000,-3097654.000000,-1318663.000000,1385201.000000,3640482.690755,1522.737338
616.000000,-31.000000,978.000000,-122.000000,-1484.000000,4254.000000,-3112414.000000,-1347723.000000,1450721.000000,3688911.711056,3658.965564
616.000000,-31.000000,978.000000,817.000000,-2179.000000,3835.000000,-3108193.000000,-1392831.000000,1510718.000000,3726004.669258,3580.049441
616.000000,-31.000000,978.000000,871.000000,-1680.000000,2547.000000,-3102838.000000,-1427460.000000,1543667.000000,3748086.646908,2290.411972
616.000000,-31.000000,978.000000,282.000000,-927.000000,1574.000000,-3109518.000000,-1445380.000000,1555587.000000,3765378.659749,1126.759957
616.000000,-31.000000,978.000000,-635.000000,202.000000,98.000000,-3135789.000000,-1440487.000000,1537107.000000,3777680.952534,1547.155454
616.000000,-31.000000,978.000000,-1620.000000,1428.000000,-1162.000000,-3182745.000000,-1409848.000000,1492167.000000,3787360.489050,3421.692125
616.000000,-31.000000,978.000000,-1303.000000,1020.000000,-793.000000,-3223044.000000,-1387777.000000,1454976.000000,3798801.493661,2814.889518
616.000000,-31.000000,978.000000,-441.000000,-8.000000,26.000000,-3244184.000000,-1387317.000000,1435936.000000,3809368.777165,1422.702358
616.000000,-31.000000,978.000000,574.000000,-1677.000000,1378.000000,-3245024.000000,-1420237.000000,1443936.000000,3825206.539370,1694.426157
616.000000,-31.000000,978.000000,1147.000000,-2214.000000,3591.000000,-3234404.000000,-1463897.000000,1496196.000000,3852657.022399,3446.043964
616.000000,-31.000000,978.000000,1011.000000,-2026.000000,2999.000000,-3226504.000000,-1503797.000000,1536616.000000,3877231.255765,2867.139864
616.000000,-31.000000,978.000000,734.000000,-1202.000000,1283.000000,-3224144.000000,-1527217.000000,1542716.000000,3886832.766467,1215.808373
616.000000,-31.000000,978.000000,-159.000000,996.000000,-590.000000,-3240419.000000,-1505650.000000,1509788.000000,3879014.955244,2028.294357
616.000000,-31.000000,978.000000,-1947.000000,1324.000000,-2817.000000,-3294242.000000,-1477195.000000,1430093.000000,3883207.618868,4775.669482
616.000000,-31.000000,978.000000,-1154.000000,890.000000,-905.000000,-3329642.000000,-1458775.000000,1392433.000000,3892738.111956,2743.506880
616.000000,-31.000000,978.000000,-419.000000,-722.000000,414.000000,-3350342.000000,-1472595.000000,1381153.000000,3911637.912742,1366.309628
616.000000,-31.000000,978.000000,1037.000000,-2267.000000,2746.000000,-3341501.000000,-1519551.000000,1418281.000000,3935249.060677,2881.451197
616.000000,-31.000000,978.000000,1140.000000,-2157.000000,3281.000000,-3331021.000000,-1562071.000000,1464341.000000,3959805.711871,3177.776109
616.000000,-31.000000,978.000000,1136.000000,-1507.000000,2179.000000,-3320621.000000,-1591591.000000,1488361.000000,3971763.361939,1972.657345
616.000000,-31.000000,978.000000,297.000000,-928.000000,1430.000000,-3327001.000000,-1609531.000000,1497401.000000,3987698.013737,1053.885193
616.000000,-31.000000,978.000000,-1087.000000,824.000000,-565.000000,-3361061.000000,-1592431.000000,1466541.000000,3997913.210684,2451.954934
616.000000,-31.000000,978.000000,-1482.000000,835.000000,-1079.000000,-3405119.000000,-1574245.000000,1423344.000000,4012354.778247,3063.137117
616.000000,-31.000000,978.000000,-846.000000,440.000000,6.000000,-3435821.000000,-1564354.000000,1402932.000000,4027441.815592,1817.709823
616.000000,-31.000000,978.000000,-92.000000,-1434.000000,730.000000,-3452105.000000,-1596623.000000,1397228.000000,4051972.361596,1590.967316
616.000000,-31.000000,978.000000,405.000000,-1554.000000,2552.000000,-3456536.000000,-1628606.000000,1430282.000000,4079914.854756,2200.346791
616.000000,-31.000000,978.000000,375.000000,-1456.000000,2310.000000,-3461356.000000,-1657106.000000,1456922.000000,4104827.324999,1965.433794
616.000000,-31.000000,978.000000,138.000000,-1071.000000,1728.000000,-3471394.000000,-1678946.000000,1472672.000000,4127735.310523,1368.423911
616.000000,-31.000000,978.000000,-313.000000,-620.000000,448.000000,-3489974.000000,-1690726.000000,1462072.000000,4144409.181166,1221.008599
616.000000,-31.000000,978.000000,-508.000000,-297.000000,300.000000,-3512454.000000,-1696046.000000,1448512.000000,4160780.233367,1339.334163
616.000000,-31.000000,978.000000,-285.000000,-416.000000,577.000000,-3531375.000000,-1704131.000000,1440091.000000,4177144.233094,1058.691173
616.000000,-31.000000,978.000000,-364.000000,-593.000000,880.000000,-3550975.000000,-1715371.000000,1438131.000000,4197635.273750,1133.952380
616.000000,-31.000000,978.000000,-374.000000,-666.000000,1167.000000,-3570775.000000,-1728071.000000,1441911.000000,4220873.228798,1191.237172
616.000000,-31.000000,978.000000,-288.000000,-723.000000,1200.000000,-3588855.000000,-1741911.000000,1446351.000000,4243355.436226,1159.898271
616.000000,-31.000000,978.000000,-296.000000,-707.000000,1129.000000,-3608007.000000,-1756107.000000,1449522.000000,4266466.961783,1145.216573
616.000000,-31.000000,978.000000,-347.000000,-646.000000,945.000000,-3627267.000000,-1768407.000000,1448862.000000,4287601.929049,1143.102358
616.000000,-31.000000,978.000000,-286.000000,-624.000000,885.000000,-3646209.000000,-1780860.000000,1446909.000000,4308114.212223,1083.467581
616.000000,-31.000000,978.000000,-283.000000,-580.000000,748.000000,-3664189.000000,-1791840.000000,1442309.000000,4326341.048138,1078.193860
616.000000,-31.000000,978.000000,-299.000000,-490.000000,631.000000,-3683404.000000,-1801479.000000,1435022.000000,4344200.703828,1080.886210
616.000000,-31.000000,978.000000,-341.000000,-536.000000,931.000000,-3702544.000000,-1811579.000000,1434082.000000,4364314.577102,1083.089562
616.000000,-31.000000,978.000000,-86.000000,-657.000000,1191.000000,-3716584.000000,-1824099.000000,1438342.000000,4382825.743721,964.390481
616.000000,-31.000000,978.000000,129.000000,-656.000000,1246.000000,-3726811.000000,-1837224.000000,1443970.000000,4398813.660158,836.431707
616.000000,-31.000000,978.000000,65.000000,-516.000000,1037.000000,-3738382.000000,-1847409.000000,1445209.000000,4413280.984130,736.414965
616.000000,-31.000000,978.000000,78.000000,-579.000000,939.000000,-3749680.000000,-1858917.000000,1444390.000000,4427407.253392,768.940180
616.000000,-31.000000,978.000000,262.000000,-486.000000,1083.000000,-3757114.000000,-1868472.000000,1446595.000000,4438437.824033,585.974402
616.000000,-31.000000,978.000000,406.000000,-647.000000,1076.000000,-3761314.000000,-1880792.000000,1448555.000000,4447827.912800,658.148919
616.000000,-31.000000,978.000000,469.000000,-676.000000,1167.000000,-3764254.000000,-1893692.000000,1452335.000000,4457011.837499,688.007994
616.000000,-31.000000,978.000000,456.000000,-547.000000,1061.000000,-3767614.000000,-1904528.000000,1454078.000000,4465029.113664,546.575704
616.000000,-31.000000,978.000000,368.000000,-407.000000,883.000000,-3772822.000000,-1912424.000000,1452083.000000,4472146.737122,460.331402
616.000000,-31.000000,978.000000,403.000000,-376.000000,808.000000,-3777295.000000,-1919669.000000,1448513.000000,4477865.171904,439.652135
616.000000,-31.000000,978.000000,631.000000,-1535.000000,2577.000000,-3776980.000000,-1951253.000000,1482092.000000,4502173.129376,2195.231651
616.000000,-31.000000,978.000000,470.000000,-297.000000,925.000000,-3780046.000000,-1956839.000000,1480979.000000,4506802.129279,308.027596
616.000000,-31.000000,978.000000,510.000000,-357.000000,944.000000,-3782166.000000,-1963359.000000,1480299.000000,4511190.900842,344.482220
616.000000,-31.000000,978.000000,467.000000,-378.000000,1088.000000,-3785295.000000,-1970646.000000,1482609.000000,4517746.489260,393.331921
616.000000,-31.000000,978.000000,514.000000,-337.000000,966.000000,-3787437.000000,-1977072.000000,1482357.000000,4522264.366178,322.775464
616.000000,-31.000000,978.000000,481.000000,-314.000000,1024.000000,-3790137.000000,-1982732.000000,1483277.000000,4527303.316691,316.906926
616.000000,-31.000000,978.000000,464.000000,-321.000000,1113.000000,-3793329.000000,-1988822.000000,1486112.000000,4533573.284559,354.159569
616.000000,-31.000000,978.000000,440.000000,-287.000000,1090.000000,-3796849.000000,-1993942.000000,1488352.000000,4539499.829725,330.236279
616.000000,-31.000000,978.000000,435.000000,-256.000000,1039.000000,-3800469.000000,-1998442.000000,1489572.000000,4544904.816441,295.138950
616.000000,-31.000000,978.000000,439.000000,-382.000000,1258.000000,-3804009.000000,-2005462.000000,1495172.000000,4552790.530555,482.628221
616.000000,-31.000000,978.000000,481.000000,-239.000000,1079.000000,-3806709.000000,-2009622.000000,1497192.000000,4557542.965067,267.749883
616.000000,-31.000000,978.000000,442.000000,-228.000000,1102.000000,-3810189.000000,-2013562.000000,1499672.000000,4563002.109483,290.621747
616.000000,-31.000000,978.000000,495.000000,-198.000000,1077.000000,-3812609.000000,-2016902.000000,1501652.000000,4567147.883919,228.759699
616.000000,-31.000000,978.000000,446.000000,-179.000000,1140.000000,-3816009.000000,-2019862.000000,1504892.000000,4572359.032140,277.575215
616.000000,-31.000000,978.000000,428.000000,-189.000000,1111.000000,-3819957.000000,-2023180.000000,1507685.000000,4578039.193091,279.279430
616.000000,-31.000000,978.000000,452.000000,-182.000000,1139.000000,-3823237.000000,-2026200.000000,1510905.000000,4583171.556596,274.987272
616.000000,-31.000000,978.000000,463.000000,-156.000000,1139.000000,-3826450.000000,-2028825.000000,1514286.000000,4588127.349248,254.862708
616.000000,-31.000000,978.000000,461.000000,-117.000000,1127.000000,-3829550.000000,-2030545.000000,1517266.000000,4592457.110772,231.564246
616.000000,-31.000000,978.000000,430.000000,-107.000000,1162.000000,-3833456.000000,-2032141.000000,1521130.000000,4597697.078399,272.448160
616.000000,-31.000000,978.000000,441.000000,-118.000000,1185.000000,-3836956.000000,-2033881.000000,1525270.000000,4602754.810002,284.680523
616.000000,-31.000000,978.000000,460.000000,-75.000000,1141.000000,-3840076.000000,-2034761.000000,1528530.000000,4606825.368277,229.871703
616.000000,-31.000000,978.000000,464.000000,-95.000000,1125.000000,-3843116.000000,-2036041.000000,1531470.000000,4610900.552391,220.927590
616.000000,-31.000000,978.000000,482.000000,-58.000000,1150.000000,-3845930.000000,-2036608.000000,1535082.000000,4614696.789312,219.702071
616.000000,-31.000000,978.000000,465.000000,-94.000000,1180.000000,-3848950.000000,-2037868.000000,1539122.000000,4619114.484272,259.949995
616.000000,-31.000000,978.000000,445.000000,-107.000000,1189.000000,-3852370.000000,-2039388.000000,1543342.000000,4624041.799163,282.024822
616.000000,-31.000000,978.000000,463.000000,-82.000000,1199.000000,-3855430.000000,-2040408.000000,1547762.000000,4628517.311192,273.589108
616.000000,-31.000000,978.000000,473.000000,-85.000000,1199.000000,-3858433.000000,-2041542.000000,1552403.000000,4633071.770182,268.711741
616.000000,-31.000000,978.000000,488.000000,-80.000000,1185.000000,-3861505.000000,-2042718.000000,1557371.000000,4637814.369311,248.261958
616.000000,-31.000000,978.000000,486.000000,-88.000000,1264.000000,-3864235.000000,-2043915.000000,1563377.000000,4642633.768302,319.288271
616.000000,-31.000000,978.000000,452.000000,-218.000000,1184.000000,-3867515.000000,-2047655.000000,1567497.000000,4648398.661825,322.956653
616.000000,-31.000000,978.000000,702.000000,-469.000000,1544.000000,-3865795.000000,-2056415.000000,1578817.000000,4654661.830223,720.830077
616.000000,-31.000000,978.000000,816.000000,-653.000000,2132.000000,-3861795.000000,-2068855.000000,1601897.000000,4664728.891550,1326.122166
616.000000,-31.000000,978.000000,1008.000000,-590.000000,1485.000000,-3853563.000000,-2080594.000000,1612544.000000,4666810.188956,850.408137
616.000000,-31.000000,978.000000,782.000000,-487.000000,1338.000000,-3850243.000000,-2089714.000000,1619744.000000,4670636.614679,604.228434
616.000000,-31.000000,978.000000,548.000000,-246.000000,867.000000,-3851671.000000,-2094229.000000,1617413.000000,4673027.863094,251.336428
616.000000,-31.000000,978.000000,134.000000,-25.000000,595.000000,-3861311.000000,-2094109.000000,1609753.000000,4678281.721274,615.669554
616.000000,-31.000000,978.000000,-244.000000,47.000000,476.000000,-3878511.000000,-2092549.000000,1599713.000000,4688356.916542,998.843331
616.000000,-31.000000,978.000000,-349.000000,57.000000,491.000000,-3898776.000000,-2090701.000000,1589486.000000,4700845.744520,1084.498963
616.000000,-31.000000,978.000000,-459.000000,29.000000,1056.000000,-3920276.000000,-2089501.000000,1591046.000000,4718686.863874,1079.494789
616.000000,-31.000000,978.000000,-401.000000,-213.000000,1023.000000,-3941633.000000,-2093323.000000,1591991.000000,4738449.876605,1034.136355
616.000000,-31.000000,978.000000,-289.000000,-250.000000,1129.000000,-3959733.000000,-2097703.000000,1595011.000000,4756459.123930,943.285217
616.000000,-31.000000,978.000000,-349.000000,-270.000000,1234.000000,-3979998.000000,-2102722.000000,1600387.000000,4777348.892331,1026.587551
616.000000,-31.000000,978.000000,-340.000000,-293.000000,1216.000000,-4000074.000000,-2108224.000000,1605385.000000,4798172.718637,1019.423366
616.000000,-31.000000,978.000000,-304.000000,-300.000000,1244.000000,-4018474.000000,-2113604.000000,1610705.000000,4817657.704167,994.744691
616.000000,-31.000000,978.000000,-291.000000,-312.000000,1318.000000,-4036614.000000,-2119224.000000,1617505.000000,4837528.849753,1008.568292
616.000000,-31.000000,978.000000,-289.000000,-310.000000,1323.000000,-4054714.000000,-2124804.000000,1624405.000000,4857385.023265,1007.914183
616.000000,-31.000000,978.000000,-334.000000,-288.000000,1275.000000,-4074664.000000,-2130201.000000,1630642.000000,4878487.095961,1027.987354
616.000000,-31.000000,978.000000,-267.000000,-179.000000,1171.000000,-4092324.000000,-2133161.000000,1634502.000000,4895823.563089,915.883180
616.000000,-31.000000,978.000000,-216.000000,-233.000000,1173.000000,-4108964.000000,-2137201.000000,1638402.000000,4912797.001841,878.096236
616.000000,-31.000000,978.000000,-221.000000,-266.000000,1097.000000,-4126541.000000,-2142136.000000,1640901.000000,4930481.047421,877.470797
616.000000,-31.000000,978.000000,-327.000000,-109.000000,1037.000000,-4146344.000000,-2143774.000000,1642140.000000,4948187.477149,948.058015
616.000000,-31.000000,978.000000,-177.000000,-185.000000,1116.000000,-4162997.000000,-2147008.000000,1645038.000000,4964507.769711,819.517541
616.000000,-31.000000,978.000000,-180.000000,-266.000000,1191.000000,-4178917.000000,-2151708.000000,1649298.000000,4981302.892111,856.860549
616.000000,-31.000000,978.000000,-7.000000,-210.000000,1180.000000,-4192000.000000,-2155467.000000,1653540.000000,4995307.449966,678.950661
616.000000,-31.000000,978.000000,303.000000,-71.000000,970.000000,-4198260.000000,-2156267.000000,1653380.000000,5000853.909813,315.646955
616.000000,-31.000000,978.000000,406.000000,-167.000000,887.000000,-4202460.000000,-2158987.000000,1651560.000000,5004952.082824,266.227346
616.000000,-31.000000,978.000000,362.000000,-221.000000,1057.000000,-4207794.000000,-2162977.000000,1653219.000000,5011699.603022,326.889890
616.000000,-31.000000,978.000000,537.000000,-258.000000,1188.000000,-4209374.000000,-2167517.000000,1657419.000000,5016372.908659,319.170801
616.000000,-31.000000,978.000000,740.000000,-272.000000,1212.000000,-4206770.000000,-2172578.000000,1662333.000000,5018003.587272,358.068429
616.000000,-31.000000,978.000000,746.000000,-992.000000,1021.000000,-4204040.000000,-2192759.000000,1663236.000000,5024788.388119,970.705929
616.000000,-31.000000,978.000000,673.000000,-244.000000,622.000000,-4202843.000000,-2197232.000000,1655760.000000,5023271.734843,418.752910
616.000000,-31.000000,978.000000,626.000000,114.000000,1064.000000,-4202643.000000,-2194332.000000,1657480.000000,5022403.912677,168.881615
616.000000,-31.000000,978.000000,629.000000,-21.000000,954.000000,-4202383.000000,-2194132.000000,1657000.000000,5021940.572340,29.068884
616.000000,-31.000000,978.000000,625.000000,-15.000000,1053.000000,-4202203.000000,-2193812.000000,1658500.000000,5022145.298033,77.213988
616.000000,-31.000000,978.000000,585.000000,20.000000,1193.000000,-4202823.000000,-2192792.000000,1662800.000000,5023640.290128,223.130007
616.000000,-31.000000,978.000000,510.000000,-43.000000,1310.000000,-4205155.000000,-2193056.000000,1670104.000000,5028127.938306,348.717651
616.000000,-31.000000,978.000000,443.000000,-95.000000,1377.000000,-4208615.000000,-2194336.000000,1678084.000000,5034234.461184,439.574795
616.000000,-31.000000,978.000000,393.000000,-143.000000,1630.000000,-4213298.000000,-2196688.000000,1691776.000000,5043751.008954,698.123915
616.000000,-31.000000,978.000000,784.000000,298.000000,99.000000,-4209770.000000,-2189779.000000,1673317.000000,5031628.494258,953.470503
616.000000,-31.000000,978.000000,1251.000000,851.000000,2162.000000,-4197070.000000,-2172139.000000,1696997.000000,5021292.984703,1607.172984
616.000000,-31.000000,978.000000,758.000000,59.000000,1211.000000,-4193946.000000,-2170159.000000,1702123.000000,5019561.319809,287.320379
616.000000,-31.000000,978.000000,404.000000,-180.000000,1103.000000,-4198186.000000,-2173139.000000,1704623.000000,5025240.131182,287.697758
616.000000,-31.000000,978.000000,389.000000,-203.000000,1127.000000,-4202953.000000,-2176751.000000,1707752.000000,5031846.155211,321.424952
616.000000,-31.000000,978.000000,441.000000,-131.000000,957.000000,-4206803.000000,-2178951.000000,1707290.000000,5035857.234405,202.647477
616.000000,-31.000000,978.000000,632.000000,142.000000,753.000000,-4206467.000000,-2175318.000000,1702565.000000,5032405.051507,284.270997
616.000000,-31.000000,978.000000,656.000000,20.000000,872.000000,-4205667.000000,-2174298.000000,1700445.000000,5030578.486190,124.245724
616.000000,-31.000000,978.000000,541.000000,-75.000000,1091.000000,-4207167.000000,-2175178.000000,1702705.000000,5032977.032989,142.583309
616.000000,-31.000000,978.000000,575.000000,-53.000000,1144.000000,-4208028.000000,-2175640.000000,1706191.000000,5035076.641608,172.397796
616.000000,-31.000000,978.000000,605.000000,-18.000000,1030.000000,-4208259.000000,-2175367.000000,1707283.000000,5035521.883366,54.717456
616.000000,-31.000000,978.000000,646.000000,15.000000,1009.000000,-4207629.000000,-2174401.000000,1707934.000000,5034798.909470,63.063460
616.000000,-31.000000,978.000000,611.000000,-22.000000,1062.000000,-4207729.000000,-2174221.000000,1709614.000000,5035374.894015,84.628600
616.000000,-31.000000,978.000000,606.000000,-28.000000,1068.000000,-4207929.000000,-2174161.000000,1711414.000000,5036127.520462,90.603532
616.000000,-31.000000,978.000000,622.000000,-20.000000,1000.000000,-4207803.000000,-2173930.000000,1711876.000000,5036079.543761,25.317978
616.000000,-31.000000,978.000000,610.000000,-25.000000,1064.000000,-4207923.000000,-2173810.000000,1713596.000000,5036712.930200,86.417591
616.000000,-31.000000,978.000000,598.000000,-10.000000,1040.000000,-4208301.000000,-2173369.000000,1714898.000000,5037281.535428,67.889616
616.000000,-31.000000,978.000000,606.000000,-11.000000,1023.000000,-4208511.000000,-2172949.000000,1715843.000000,5037597.581623,50.249378
616.000000,-31.000000,978.000000,596.000000,-6.000000,1066.000000,-4208911.000000,-2172449.000000,1717603.000000,5038315.842534,93.642939
616.000000,-31.000000,978.000000,620.000000,-16.000000,1032.000000,-4208827.000000,-2172134.000000,1718737.000000,5038496.571901,56.187187
616.000000,-31.000000,978.000000,618.000000,-21.000000,1017.000000,-4208785.000000,-2171924.000000,1719556.000000,5038650.402155,40.311289
616.000000,-31.000000,978.000000,630.000000,-30.000000,1033.000000,-4208491.000000,-2171903.000000,1720711.000000,5038790.081360,56.762664
616.000000,-31.000000,978.000000,624.000000,-43.000000,1016.000000,-4208331.000000,-2172143.000000,1721471.000000,5039019.490124,40.644803
616.000000,-31.000000,978.000000,607.000000,-30.000000,1023.000000,-4208511.000000,-2172123.000000,1722371.000000,5039468.724567,45.902070
616.000000,-31.000000,978.000000,607.000000,-21.000000,1044.000000,-4208700.000000,-2171913.000000,1723757.000000,5040009.917115,67.357256
616.000000,-31.000000,978.000000,581.000000,-4.000000,1064.000000,-4209400.000000,-2171373.000000,1725477.000000,5040950.301546,96.695398
616.000000,-31.000000,978.000000,595.000000,-6.000000,1056.000000,-4209841.000000,-2170848.000000,1727115.000000,5041653.350599,84.557673
616.000000,-31.000000,978.000000,607.000000,-17.000000,1027.000000,-4210021.000000,-2170568.000000,1728095.000000,5042018.900410,51.749396
616.000000,-31.000000,978.000000,617.000000,-30.000000,1035.000000,-4210001.000000,-2170548.000000,1729235.000000,5042384.428574,57.017541
616.000000,-31.000000,978.000000,625.000000,-37.000000,1016.000000,-4209821.000000,-2170668.000000,1729995.000000,5042546.491436,39.509493
616.000000,-31.000000,978.000000,632.000000,-36.000000,1023.000000,-4209501.000000,-2170768.000000,1730895.000000,5042631.245674,48.020829
616.000000,-31.000000,978.000000,610.000000,-36.000000,1029.000000,-4209627.000000,-2170873.000000,1731966.000000,5043149.342069,51.594573
616.000000,-31.000000,978.000000,598.000000,-19.000000,1031.000000,-4209987.000000,-2170633.000000,1733026.000000,5043710.665525,57.245087
616.000000,-31.000000,978.000000,593.000000,-14.000000,1053.000000,-4210470.000000,-2170276.000000,1734601.000000,5044501.577587,80.268300
616.000000,-31.000000,978.000000,602.000000,-8.000000,1046.000000,-4210764.000000,-2169793.000000,1736029.000000,5045030.407776,73.136858
616.000000,-31.000000,978.000000,597.000000,-24.000000,1040.000000,-4211144.000000,-2169653.000000,1737269.000000,5045714.172197,65.222695
616.000000,-31.000000,978.000000,605.000000,-27.000000,1023.000000,-4211364.000000,-2169573.000000,1738169.000000,5046173.323954,46.497312
616.000000,-31.000000,978.000000,612.000000,-34.000000,1040.000000,-4211444.000000,-2169633.000000,1739409.000000,5046693.134034,62.201286
616.000000,-31.000000,978.000000,611.000000,-11.000000,1022.000000,-4211549.000000,-2169213.000000,1740333.000000,5046918.759962,48.590122
616.000000,-31.000000,978.000000,615.000000,-13.000000,1037.000000,-4211569.000000,-2168853.000000,1741513.000000,5047187.762164,61.692787
616.000000,-31.000000,978.000000,614.000000,-23.000000,1022.000000,-4211609.000000,-2168693.000000,1742393.000000,5047456.098232,44.766059
616.000000,-31.000000,978.000000,614.000000,-28.000000,1055.000000,-4211651.000000,-2168630.000000,1744010.000000,5048022.494284,77.084369
616.000000,-31.000000,978.000000,600.000000,-17.000000,1030.000000,-4211971.000000,-2168350.000000,1745050.000000,5048528.590574,56.178288
616.000000,-31.000000,978.000000,597.000000,-21.000000,1039.000000,-4212351.000000,-2168150.000000,1746270.000000,5049181.545815,64.668385
616.000000,-31.000000,978.000000,609.000000,-22.000000,1051.000000,-4212491.000000,-2167970.000000,1747730.000000,5049726.180585,73.885046
616.000000,-31.000000,978.000000,589.000000,-30.000000,1042.000000,-4213031.000000,-2167950.000000,1749010.000000,5050611.189704,69.469418
616.000000,-31.000000,978.000000,612.000000,-24.000000,1031.000000,-4213111.000000,-2167810.000000,1750070.000000,5050985.002880,53.609701
616.000000,-31.000000,978.000000,606.000000,-24.000000,1039.000000,-4213311.000000,-2167670.000000,1751290.000000,5051514.572455,62.209324
616.000000,-31.000000,978.000000,614.000000,-16.000000,1035.000000,-4213353.000000,-2167355.000000,1752487.000000,5051829.558071,58.974571
616.000000,-31.000000,978.000000,611.000000,-29.000000,1030.000000,-4213453.000000,-2167315.000000,1753527.000000,5052256.667289,52.278102
616.000000,-31.000000,978.000000,430.000000,-174.000000,852.000000,-4217359.000000,-2170318.000000,1750881.000000,5055885.820721,266.309970
616.000000,-31.000000,978.000000,557.000000,-88.000000,1167.000000,-4218657.000000,-2171572.000000,1755039.000000,5058947.887294,206.036405
616.000000,-31.000000,978.000000,665.000000,72.000000,1168.000000,-4217677.000000,-2169512.000000,1758839.000000,5058566.617372,221.607762
616.000000,-31.000000,978.000000,614.000000,0.000000,1137.000000,-4217717.000000,-2168892.000000,1762019.000000,5059440.695978,162.006173
616.000000,-31.000000,978.000000,685.000000,25.000000,1089.000000,-4216337.000000,-2167772.000000,1764239.000000,5058584.030208,142.190014
616.000000,-31.000000,978.000000,760.000000,56.000000,898.000000,-4213169.000000,-2165858.000000,1762479.000000,5054509.484032,186.292780
616.000000,-31.000000,978.000000,404.000000,-196.000000,1416.000000,-4217409.000000,-2169158.000000,1771239.000000,5062516.439219,513.821954
616.000000,-31.000000,978.000000,682.000000,-335.000000,1899.000000,-4216089.000000,-2175238.000000,1789659.000000,5070497.623394,972.117791
616.000000,-31.000000,978.000000,1006.000000,-355.000000,1630.000000,-4208289.000000,-2181718.000000,1802699.000000,5071421.242970,825.941887
616.000000,-31.000000,978.000000,1005.000000,-289.000000,1541.000000,-4200509.000000,-2186878.000000,1813959.000000,5071208.780917,731.337132
616.000000,-31.000000,978.000000,903.000000,-143.000000,1241.000000,-4194769.000000,-2189118.000000,1819219.000000,5069307.876944,405.070364
616.000000,-31.000000,978.000000,755.000000,-109.000000,872.000000,-4191850.000000,-2190756.000000,1816993.000000,5066801.933773,191.418390
616.000000,-31.000000,978.000000,189.000000,-70.000000,785.000000,-4200817.000000,-2191575.000000,1812940.000000,5073126.835761,470.211654
616.000000,-31.000000,978.000000,-257.000000,494.000000,-171.000000,-4219150.000000,-2180550.000000,1788811.000000,5075024.120014,1535.563415
616.000000,-31.000000,978.000000,-865.000000,743.000000,-826.000000,-4248770.000000,-2165070.000000,1752731.000000,5080515.778556,2459.034973
616.000000,-31.000000,978.000000,-1152.000000,946.000000,56.000000,-4284130.000000,-2145530.000000,1734291.000000,5095570.047647,2220.458736
616.000000,-31.000000,978.000000,-445.000000,-521.000000,1453.000000,-4306411.000000,-2155820.000000,1744266.000000,5122030.793745,1261.525267
616.000000,-31.000000,978.000000,1496.000000,-1139.000000,3631.000000,-4288811.000000,-2177980.000000,1797326.000000,5134966.156110,3006.737933
616.000000,-31.000000,978.000000,1468.000000,-998.000000,3488.000000,-4270919.000000,-2198287.000000,1850036.000000,5147411.780713,2821.540891
616.000000,-31.000000,978.000000,981.000000,-246.000000,2280.000000,-4263254.000000,-2202802.000000,1877378.000000,5152884.578040,1369.180047
616.000000,-31.000000,978.000000,305.000000,47.000000,1275.000000,-4270096.000000,-2201086.000000,1883912.000000,5160196.105998,437.051484
616.000000,-31.000000,978.000000,-385.000000,794.000000,201.000000,-4291117.000000,-2183761.000000,1867595.000000,5164340.064019,1512.069774
616.000000,-31.000000,978.000000,-2347.000000,1727.000000,-2297.000000,-4350377.000000,-2148601.000000,1802095.000000,5175887.623235,4753.478516
616.000000,-31.000000,978.000000,-2115.000000,1763.000000,-1190.000000,-4407728.000000,-2110927.000000,1756567.000000,5193226.987799,3921.354485
616.000000,-31.000000,978.000000,-483.000000,605.000000,184.000000,-4430807.000000,-2097571.000000,1739893.000000,5201834.524736,1497.575708
616.000000,-31.000000,978.000000,1462.000000,-990.000000,3403.000000,-4413887.000000,-2116751.000000,1788393.000000,5211658.350968,2741.536431
616.000000,-31.000000,978.000000,1687.000000,-1375.000000,3607.000000,-4392467.000000,-2143631.000000,1840973.000000,5222844.224843,3140.862620
616.000000,-31.000000,978.000000,872.000000,-672.000000,2883.000000,-4387091.000000,-2157092.000000,1880978.000000,5238099.996681,2026.189034
616.000000,-31.000000,978.000000,635.000000,-300.000000,1312.000000,-4386692.000000,-2162741.000000,1887992.000000,5242616.629891,429.276135
616.000000,-31.000000,978.000000,-107.000000,-22.000000,776.000000,-4401875.000000,-2162552.000000,1883750.000000,5253727.127557,750.742299
616.000000,-31.000000,978.000000,-982.000000,1037.000000,-664.000000,-4433835.000000,-2141192.000000,1850910.000000,5260177.165856,2527.922467
616.000000,-31.000000,978.000000,-2617.000000,1917.000000,-141.000000,-4498495.000000,-2102232.000000,1828530.000000,5291442.015911,3936.896493
616.000000,-31.000000,978.000000,-1467.000000,1328.000000,1717.000000,-4542238.000000,-2073693.000000,1844049.000000,5322841.855747,2594.588792
616.000000,-31.000000,978.000000,-101.000000,-947.000000,2718.000000,-4557295.000000,-2092929.000000,1880589.000000,5355922.376490,2093.022933
616.000000,-31.000000,978.000000,1869.000000,-1684.000000,2736.000000,-4532235.000000,-2125989.000000,1915749.000000,5360137.829790,2719.003862
616.000000,-31.000000,978.000000,1422.000000,-1121.000000,2227.000000,-4515309.000000,-2148879.000000,1941978.000000,5364417.477658,1843.295147
616.000000,-31.000000,978.000000,1214.000000,-618.000000,690.000000,-4503349.000000,-2160619.000000,1936218.000000,5356992.329889,886.068282
616.000000,-31.000000,978.000000,298.000000,-89.000000,1561.000000,-4509709.000000,-2161779.000000,1947878.000000,5367028.266406,666.616081
616.000000,-31.000000,978.000000,-683.000000,1038.000000,1041.000000,-4535689.000000,-2140399.000000,1949138.000000,5380791.905191,1683.487749
616.000000,-31.000000,978.000000,-1689.000000,2328.000000,1523.000000,-4584094.000000,-2090860.000000,1960583.000000,5406431.266587,3342.892610
616.000000,-31.000000,978.000000,-2027.000000,2374.000000,1443.000000,-4636954.000000,-2042760.000000,1969883.000000,5436418.844185,3603.567538
616.000000,-31.000000,978.000000,-1070.000000,1318.000000,1452.000000,-4670674.000000,-2015780.000000,1979363.000000,5458611.774842,2210.672522
616.000000,-31.000000,978.000000,-577.000000,616.000000,1279.000000,-4694534.000000,-2002840.000000,1985383.000000,5476473.609856,1390.129131
616.000000,-31.000000,978.000000,-333.000000,-48.000000,365.000000,-4714463.000000,-2003197.000000,1972510.000000,5489057.778825,1129.893358
616.000000,-31.000000,978.000000,1801.000000,-1926.000000,-27.000000,-4690763.000000,-2041097.000000,1952410.000000,5475512.696879,2450.566261
616.000000,-31.000000,978.000000,2622.000000,-3109.000000,218.000000,-4648637.000000,-2105735.000000,1936450.000000,5458368.295608,3751.762253
616.000000,-31.000000,978.000000,1649.000000,-2500.000000,652.000000,-4626944.000000,-2157584.000000,1929604.000000,5457760.629874,2696.168763
616.000000,-31.000000,978.000000,827.000000,-1279.000000,623.000000,-4622302.000000,-2185040.000000,1921794.000000,5461993.020797,1314.553156
616.000000,-31.000000,978.000000,-315.000000,150.000000,866.000000,-4640922.000000,-2181420.000000,1919554.000000,5475530.822249,955.021466
616.000000,-31.000000,978.000000,-819.000000,1914.000000,1514.000000,-4671057.000000,-2140575.000000,1930810.000000,5488976.414959,2475.791994
616.000000,-31.000000,978.000000,-2033.000000,2406.000000,2471.000000,-4724037.000000,-2091835.000000,1960670.000000,5525986.436239,3896.821654
616.000000,-31.000000,978.000000,-1993.000000,1884.000000,1508.000000,-4776217.000000,-2053535.000000,1971270.000000,5560140.307601,3279.482581
616.000000,-31.000000,978.000000,-887.000000,696.000000,1025.000000,-4806277.000000,-2038995.000000,1972210.000000,5580986.605866,1670.253574
616.000000,-31.000000,978.000000,1797.000000,-1386.000000,-141.000000,-4782657.000000,-2066095.000000,1949830.000000,5562768.515548,2117.297098
616.000000,-31.000000,978.000000,2766.000000,-3555.000000,86.000000,-4739657.000000,-2136575.000000,1931990.000000,5546339.925426,4223.356485
616.000000,-31.000000,978.000000,1582.000000,-2817.000000,858.000000,-4719371.000000,-2195081.000000,1929470.000000,5551008.711316,2951.161127
616.000000,-31.000000,978.000000,320.000000,-793.000000,1832.000000,-4725587.000000,-2211083.000000,1947404.000000,5568881.653140,1182.191186
616.000000,-31.000000,978.000000,-648.000000,183.000000,855.000000,-4750867.000000,-2206803.000000,1944944.000000,5587801.347188,1287.874606
616.000000,-31.000000,978.000000,-1028.000000,1700.000000,1652.000000,-4785391.000000,-2170452.000000,1959098.000000,5607931.337025,2480.599323
616.000000,-31.000000,978.000000,-2072.000000,2541.000000,1797.000000,-4839151.000000,-2119012.000000,1975478.000000,5640044.998529,3809.368583
616.000000,-31.000000,978.000000,-2156.000000,2558.000000,1205.000000,-4897363.000000,-2064643.000000,1980245.000000,5671709.207218,3799.793942
616.000000,-31.000000,978.000000,-1133.000000,661.000000,237.000000,-4934092.000000,-2050111.000000,1964684.000000,5692820.232244,2021.619648
616.000000,-31.000000,978.000000,2143.000000,-2072.000000,158.000000,-4903552.000000,-2090931.000000,1948284.000000,5675616.724914,2677.650089
616.000000,-31.000000,978.000000,2319.000000,-3423.000000,846.000000,-4867789.000000,-2162163.000000,1945512.000000,5670567.478589,3797.801601
616.000000,-31.000000,978.000000,934.000000,-2134.000000,2620.000000,-4861429.000000,-2204223.000000,1978352.000000,5692623.963663,2686.986602
616.000000,-31.000000,978.000000,649.000000,-1170.000000,1457.000000,-4860769.000000,-2227003.000000,1987932.000000,5704252.034228,1236.062701
616.000000,-31.000000,978.000000,259.000000,-381.000000,125.000000,-4868266.000000,-2234353.000000,1970019.000000,5707304.270470,988.715328
616.000000,-31.000000,978.000000,-678.000000,1334.000000,789.000000,-4895440.000000,-2205688.000000,1966050.000000,5718019.320485,1890.339123
616.000000,-31.000000,978.000000,-1878.000000,2372.000000,1816.000000,-4947814.000000,-2155225.000000,1983648.000000,5749845.003748,3563.241361
616.000000,-31.000000,978.000000,-1946.000000,2094.000000,1731.000000,-4999054.000000,-2112725.000000,1998708.000000,5783509.444084,3412.693658
616.000000,-31.000000,978.000000,-1074.000000,1283.000000,942.000000,-5032854.000000,-2086445.000000,1997988.000000,5803001.651860,2141.025922
616.000000,-31.000000,978.000000,-64.000000,-1044.000000,201.000000,-5046454.000000,-2106705.000000,1982448.000000,5816786.398334,1446.477791
616.000000,-31.000000,978.000000,2228.000000,-3221.000000,565.000000,-5012602.000000,-2173695.000000,1973775.000000,5809209.629033,3597.945664
616.000000,-31.000000,978.000000,1309.000000,-2845.000000,1023.000000,-4998049.000000,-2232789.000000,1974720.000000,5819395.123492,2898.425435
616.000000,-31.000000,978.000000,548.000000,-1814.000000,1130.000000,-4999477.000000,-2270232.000000,1977912.000000,5836168.219568,1790.758778
616.000000,-31.000000,978.000000,500.000000,-777.000000,606.000000,-5001797.000000,-2285152.000000,1970472.000000,5841459.817126,841.638877
616.000000,-31.000000,978.000000,-412.000000,492.000000,317.000000,-5022357.000000,-2274692.000000,1957252.000000,5850566.547080,1329.373537
616.000000,-31.000000,978.000000,-1600.000000,2259.000000,1945.000000,-5066677.000000,-2228892.000000,1976592.000000,5877592.305056,3330.141889
616.000000,-31.000000,978.000000,-2224.000000,2554.000000,2341.000000,-5123477.000000,-2177192.000000,2003852.000000,5916553.423430,4074.996196
616.000000,-31.000000,978.000000,-1549.000000,1815.000000,1710.000000,-5168942.000000,-2138426.000000,2019224.000000,5947107.928987,2937.816366
616.000000,-31.000000,978.000000,-550.000000,942.000000,419.000000,-5192262.000000,-2118966.000000,2008044.000000,5956663.687983,1618.260177
616.000000,-31.000000,978.000000,1261.000000,-1162.000000,-292.000000,-5179362.000000,-2141586.000000,1982644.000000,5945002.821965,1818.814449
616.000000,-31.000000,978.000000,2007.000000,-3217.000000,835.000000,-5151542.000000,-2205306.000000,1979784.000000,5943172.908309,3479.357125
616.000000,-31.000000,978.000000,1522.000000,-2628.000000,692.000000,-5133422.000000,-2257246.000000,1974064.000000,5945091.219712,2765.328371
616.000000,-31.000000,978.000000,690.000000,-1525.000000,603.000000,-5131942.000000,-2287126.000000,1966564.000000,5952742.896962,1542.120942
616.000000,-31.000000,978.000000,615.000000,-642.000000,724.000000,-5131962.000000,-2299346.000000,1961484.000000,5955790.919720,661.693282
616.000000,-31.000000,978.000000,-422.000000,1180.000000,2116.000000,-5154798.000000,-2272704.000000,1986520.000000,5973557.365826,1959.338919
616.000000,-31.000000,978.000000,-1262.000000,2026.000000,3070.000000,-5194236.000000,-2229507.000000,2030452.000000,6006123.909066,3483.474846
616.000000,-31.000000,978.000000,-1659.000000,1815.000000,2362.000000,-5239736.000000,-2192587.000000,2058132.000000,6041372.230850,3240.184717
616.000000,-31.000000,978.000000,-1202.000000,1263.000000,1307.000000,-5277914.000000,-2165413.000000,2065041.000000,6067106.722619,2255.615437
616.000000,-31.000000,978.000000,-757.000000,551.000000,30.000000,-5306747.000000,-2153191.000000,2045133.000000,6081148.262637,1767.075833
616.000000,-31.000000,978.000000,342.000000,-1465.000000,-99.000000,-5312227.000000,-2181871.000000,2023593.000000,6088944.521821,1814.210848
616.000000,-31.000000,978.000000,1836.000000,-2648.000000,521.000000,-5287827.000000,-2234211.000000,2014453.000000,6083653.019663,2923.343634
616.000000,-31.000000,978.000000,1394.000000,-2651.000000,695.000000,-5269933.000000,-2294471.000000,2007944.000000,6088401.276318,2747.685026
