GX,GY,GZ,AX,AY,AZ,SX,SY,SZ,TA,TS
127.000000,-13.000000,599.000000,255.000000,-26.000000,1199.000000,0.000000,0.000000,0.000000,0.000000,613.639145
165.000000,-17.000000,801.000000,242.000000,-24.000000,1207.000000,0.000000,0.000000,0.000000,0.000000,413.296504
187.000000,-17.000000,902.000000,255.000000,-15.000000,1207.000000,0.000000,0.000000,0.000000,0.000000,312.494800
200.000000,-17.000000,961.000000,255.000000,-13.000000,1201.000000,0.000000,0.000000,0.000000,0.000000,246.253934
208.000000,-17.000000,1002.000000,251.000000,-15.000000,1208.000000,0.000000,0.000000,0.000000,0.000000,210.449519
213.000000,-17.000000,1032.000000,247.000000,-14.000000,1213.000000,0.000000,0.000000,0.000000,0.000000,184.190119
217.000000,-17.000000,1053.000000,251.000000,-15.000000,1206.000000,0.000000,0.000000,0.000000,0.000000,156.745016
219.000000,-17.000000,1070.000000,242.000000,-16.000000,1212.000000,0.000000,0.000000,0.000000,0.000000,143.854093
221.000000,-17.000000,1083.000000,246.000000,-15.000000,1204.000000,0.000000,0.000000,0.000000,0.000000,123.571841
224.000000,-17.000000,1095.000000,254.000000,-16.000000,1215.000000,0.000000,0.000000,0.000000,0.000000,123.697211
226.000000,-17.000000,1105.000000,248.000000,-14.000000,1221.000000,0.000000,0.000000,0.000000,0.000000,118.105885
227.000000,-18.000000,1112.000000,240.000000,-25.000000,1200.000000,0.000000,0.000000,0.000000,0.000000,89.230040
228.000000,-19.000000,1118.000000,249.000000,-25.000000,1198.000000,0.000000,0.000000,0.000000,0.000000,82.927679
229.000000,-19.000000,1124.000000,250.000000,-9.000000,1213.000000,0.000000,0.000000,0.000000,0.000000,91.989130
230.000000,-18.000000,1130.000000,245.000000,-2.000000,1222.000000,0.000000,0.000000,0.000000,0.000000,94.578010
230.000000,-18.000000,1135.000000,244.000000,-18.000000,1225.000000,0.000000,0.000000,0.000000,0.000000,91.082380
229.000000,-18.000000,1138.000000,228.000000,-13.000000,1197.000000,0.000000,0.000000,0.000000,0.000000,59.219929
229.000000,-18.000000,1141.000000,237.000000,-14.000000,1205.000000,0.000000,0.000000,0.000000,0.000000,64.621978
226.000000,-18.000000,1138.000000,179.000000,0.000000,1088.000000,0.000000,0.000000,0.000000,0.000000,70.943640
219.000000,-26.000000,1166.000000,82.000000,-184.000000,1745.000000,0.000000,0.000000,0.000000,0.000000,615.608642
222.000000,-33.000000,1151.000000,297.000000,-176.000000,857.000000,0.000000,0.000000,0.000000,0.000000,335.425103
224.000000,-28.000000,1151.000000,286.000000,91.000000,1172.000000,0.000000,0.000000,0.000000,0.000000,135.816052
222.000000,-29.000000,1153.000000,196.000000,-30.000000,1215.000000,0.000000,0.000000,0.000000,0.000000,67.238382
223.000000,-31.000000,1158.000000,247.000000,-67.000000,1300.000000,0.000000,0.000000,0.000000,0.000000,148.445276
223.000000,-31.000000,1158.000000,231.000000,-19.000000,1167.000000,0.000000,0.000000,0.000000,0.000000,17.000000
224.000000,-31.000000,1161.000000,260.000000,-13.000000,1264.000000,0.000000,0.000000,0.000000,0.000000,110.584809
224.000000,-32.000000,1160.000000,242.000000,-39.000000,1159.000000,0.000000,0.000000,0.000000,0.000000,19.339080
224.000000,-32.000000,1163.000000,237.000000,-13.000000,1267.000000,0.000000,0.000000,0.000000,0.000000,106.517604
224.000000,-32.000000,1163.000000,240.000000,-17.000000,1182.000000,0.000000,0.000000,0.000000,0.000000,29.017236
224.000000,-32.000000,1165.000000,245.000000,-14.000000,1230.000000,0.000000,0.000000,0.000000,0.000000,70.639932
224.000000,-32.000000,1166.000000,241.000000,-27.000000,1221.000000,0.000000,0.000000,0.000000,0.000000,57.784081
224.000000,-32.000000,1167.000000,251.000000,-30.000000,1204.000000,0.000000,0.000000,0.000000,0.000000,45.847574
224.000000,-32.000000,1167.000000,255.000000,-27.000000,1197.000000,0.000000,0.000000,0.000000,0.000000,43.428102
224.000000,-32.000000,1168.000000,244.000000,-22.000000,1212.000000,0.000000,0.000000,0.000000,0.000000,49.355851
224.000000,-32.000000,1169.000000,226.000000,-27.000000,1218.000000,0.000000,0.000000,0.000000,0.000000,49.295030
224.000000,-33.000000,1170.000000,237.000000,-33.000000,1206.000000,0.000000,0.000000,0.000000,0.000000,38.275318
224.000000,-33.000000,1170.000000,243.000000,-31.000000,1201.000000,0.000000,0.000000,0.000000,0.000000,36.414283
224.000000,-33.000000,1171.000000,252.000000,-32.000000,1216.000000,0.000000,0.000000,0.000000,0.000000,53.009433
224.000000,-33.000000,1172.000000,244.000000,-26.000000,1213.000000,0.000000,0.000000,0.000000,0.000000,46.151923
224.000000,-33.000000,1173.000000,254.000000,-20.000000,1223.000000,0.000000,0.000000,0.000000,0.000000,59.741108
224.000000,-33.000000,1173.000000,245.000000,-23.000000,1214.000000,0.000000,0.000000,0.000000,0.000000,47.138095
224.000000,-33.000000,1174.000000,239.000000,-3.000000,1234.000000,0.000000,0.000000,0.000000,0.000000,68.738635
224.000000,-33.000000,1174.000000,231.000000,-16.000000,1213.000000,0.000000,0.000000,0.000000,0.000000,43.116122
224.000000,-33.000000,1174.000000,252.000000,-8.000000,1215.000000,0.000000,0.000000,0.000000,0.000000,55.587768
224.000000,-33.000000,1174.000000,252.000000,-24.000000,1190.000000,0.000000,0.000000,0.000000,0.000000,33.481338
224.000000,-34.000000,1174.000000,265.000000,-37.000000,1197.000000,0.000000,0.000000,0.000000,0.000000,47.106263
224.000000,-34.000000,1174.000000,260.000000,-25.000000,1203.000000,0.000000,0.000000,0.000000,0.000000,47.095647
224.000000,-34.000000,1174.000000,248.000000,-15.000000,1222.000000,0.000000,0.000000,0.000000,0.000000,56.929781
224.000000,-34.000000,1174.000000,239.000000,-4.000000,1213.000000,0.000000,0.000000,0.000000,0.000000,51.439285
224.000000,-34.000000,1174.000000,234.000000,-20.000000,1217.000000,0.000000,0.000000,0.000000,0.000000,46.314145
224.000000,-34.000000,1174.000000,253.000000,-20.000000,1215.000000,0.000000,0.000000,0.000000,0.000000,52.134442
224.000000,-34.000000,1174.000000,255.000000,-15.000000,1215.000000,0.000000,0.000000,0.000000,0.000000,54.799635
224.000000,-34.000000,1174.000000,253.000000,-32.000000,1206.000000,0.000000,0.000000,0.000000,0.000000,43.231933
224.000000,-34.000000,1174.000000,254.000000,-25.000000,1220.000000,0.000000,0.000000,0.000000,0.000000,55.650696
224.000000,-34.000000,1174.000000,249.000000,-17.000000,1204.000000,0.000000,0.000000,0.000000,0.000000,42.591079
224.000000,-34.000000,1174.000000,236.000000,-12.000000,1214.000000,0.000000,0.000000,0.000000,0.000000,47.201695
224.000000,-34.000000,1174.000000,233.000000,-10.000000,1212.000000,0.000000,0.000000,0.000000,0.000000,45.836667
224.000000,-34.000000,1174.000000,230.000000,-3.000000,1224.000000,0.000000,0.000000,0.000000,0.000000,59.135438
224.000000,-34.000000,1174.000000,245.000000,-21.000000,1181.000000,0.000000,0.000000,0.000000,0.000000,25.670995
224.000000,-34.000000,1174.000000,271.000000,-10.000000,1228.000000,0.000000,0.000000,0.000000,0.000000,75.504967
224.000000,-34.000000,1174.000000,269.000000,-25.000000,1191.000000,0.000000,0.000000,0.000000,0.000000,48.938737
224.000000,-34.000000,1174.000000,259.000000,-31.000000,1219.000000,0.000000,0.000000,0.000000,0.000000,57.087652
224.000000,-34.000000,1174.000000,255.000000,-21.000000,1206.000000,0.000000,0.000000,0.000000,0.000000,46.411206
224.000000,-34.000000,1174.000000,243.000000,-23.000000,1209.000000,0.000000,0.000000,0.000000,0.000000,41.315857
224.000000,-34.000000,1174.000000,238.000000,-24.000000,1200.000000,0.000000,0.000000,0.000000,0.000000,31.176915
224.000000,-34.000000,1174.000000,228.000000,-29.000000,1212.000000,0.000000,0.000000,0.000000,0.000000,38.535698
224.000000,-34.000000,1174.000000,229.000000,-17.000000,1215.000000,0.000000,0.000000,0.000000,0.000000,44.665423
224.000000,-34.000000,1174.000000,231.000000,-27.000000,1208.000000,0.000000,0.000000,0.000000,0.000000,35.411862
224.000000,-34.000000,1174.000000,244.000000,-19.000000,1207.000000,0.000000,0.000000,0.000000,0.000000,41.400483
224.000000,-34.000000,1174.000000,258.000000,-22.000000,1209.000000,0.000000,0.000000,0.000000,0.000000,50.249378
224.000000,-34.000000,1174.000000,260.000000,-17.000000,1208.000000,0.000000,0.000000,0.000000,0.000000,52.354560
224.000000,-34.000000,1174.000000,263.000000,-18.000000,1213.000000,0.000000,0.000000,0.000000,0.000000,57.428216
224.000000,-34.000000,1174.000000,244.000000,-12.000000,1222.000000,0.000000,0.000000,0.000000,0.000000,56.462377
224.000000,-34.000000,1174.000000,246.000000,-12.000000,1212.000000,0.000000,0.000000,0.000000,0.000000,49.112117
224.000000,-34.000000,1174.000000,235.000000,-19.000000,1210.000000,0.000000,0.000000,0.000000,0.000000,40.521599
224.000000,-34.000000,1174.000000,234.000000,-30.000000,1228.000000,0.000000,0.000000,0.000000,0.000000,55.063600
224.000000,-34.000000,1174.000000,259.000000,-31.000000,1213.000000,0.000000,0.000000,0.000000,0.000000,52.488094
224.000000,-34.000000,1174.000000,254.000000,-15.000000,1209.000000,0.000000,0.000000,0.000000,0.000000,49.859803
224.000000,-34.000000,1174.000000,254.000000,-27.000000,1205.000000,0.000000,0.000000,0.000000,0.000000,43.703547
224.000000,-34.000000,1174.000000,236.000000,-35.000000,1216.000000,0.000000,0.000000,0.000000,0.000000,43.692105
224.000000,-34.000000,1174.000000,241.000000,-52.000000,1198.000000,0.000000,0.000000,0.000000,0.000000,34.481879
224.000000,-34.000000,1174.000000,238.000000,-33.000000,1248.000000,0.000000,0.000000,0.000000,0.000000,75.319320
224.000000,-34.000000,1174.000000,226.000000,-29.000000,1194.000000,0.000000,0.000000,0.000000,0.000000,20.712315
224.000000,-34.000000,1174.000000,236.000000,-42.000000,1196.000000,0.000000,0.000000,0.000000,0.000000,26.305893
224.000000,-34.000000,1174.000000,223.000000,13.000000,1162.000000,0.000000,0.000000,0.000000,0.000000,48.518038
224.000000,-34.000000,1174.000000,256.000000,235.000000,1226.000000,0.000000,0.000000,0.000000,0.000000,275.842346
224.000000,-34.000000,1174.000000,250.000000,-16.000000,1173.000000,0.000000,0.000000,0.000000,0.000000,31.638584
224.000000,-34.000000,1174.000000,259.000000,-5.000000,1216.000000,0.000000,0.000000,0.000000,0.000000,61.886994
224.000000,-34.000000,1174.000000,250.000000,-15.000000,1191.000000,0.000000,0.000000,0.000000,0.000000,36.414283
224.000000,-34.000000,1174.000000,232.000000,-9.000000,1196.000000,0.000000,0.000000,0.000000,0.000000,34.249088
224.000000,-34.000000,1174.000000,249.000000,-5.000000,1205.000000,0.000000,0.000000,0.000000,0.000000,49.264592
224.000000,-34.000000,1174.000000,247.000000,-21.000000,1218.000000,0.000000,0.000000,0.000000,0.000000,51.322510
224.000000,-34.000000,1174.000000,246.000000,-6.000000,1197.000000,0.000000,0.000000,0.000000,0.000000,42.391037
224.000000,-34.000000,1174.000000,244.000000,-22.000000,1214.000000,0.000000,0.000000,0.000000,0.000000,46.303348
224.000000,-34.000000,1174.000000,241.000000,-31.000000,1216.000000,0.000000,0.000000,0.000000,0.000000,45.409250
224.000000,-34.000000,1174.000000,234.000000,-35.000000,1221.000000,0.000000,0.000000,0.000000,0.000000,48.062459
224.000000,-34.000000,1174.000000,233.000000,-21.000000,1213.000000,0.000000,0.000000,0.000000,0.000000,42.083251
224.000000,-34.000000,1174.000000,241.000000,-28.000000,1206.000000,0.000000,0.000000,0.000000,0.000000,36.728735
224.000000,-34.000000,1174.000000,240.000000,-27.000000,1215.000000,0.000000,0.000000,0.000000,0.000000,44.564560
224.000000,-34.000000,1174.000000,239.000000,-5.000000,1221.000000,0.000000,0.000000,0.000000,0.000000,57.227616
224.000000,-34.000000,1174.000000,238.000000,0.000000,1205.000000,0.000000,0.000000,0.000000,0.000000,48.093659
224.000000,-34.000000,1174.000000,240.000000,-7.000000,1208.000000,0.000000,0.000000,0.000000,0.000000,46.270941
224.000000,-34.000000,1174.000000,254.000000,-4.000000,1198.000000,0.000000,0.000000,0.000000,0.000000,48.744230
224.000000,-34.000000,1174.000000,243.000000,-13.000000,1206.000000,0.000000,0.000000,0.000000,0.000000,42.731721
224.000000,-34.000000,1174.000000,244.000000,-12.000000,1209.000000,0.000000,0.000000,0.000000,0.000000,45.923850
224.000000,-34.000000,1174.000000,252.000000,-19.000000,1206.000000,0.000000,0.000000,0.000000,0.000000,45.088801
224.000000,-34.000000,1174.000000,233.000000,-24.000000,1204.000000,0.000000,0.000000,0.000000,0.000000,32.878564
224.000000,-34.000000,1174.000000,249.000000,-19.000000,1216.000000,0.000000,0.000000,0.000000,0.000000,51.127292
224.000000,-34.000000,1174.000000,235.000000,-18.000000,1208.000000,0.000000,0.000000,0.000000,0.000000,39.153544
224.000000,-34.000000,1174.000000,237.000000,-13.000000,1203.000000,0.000000,0.000000,0.000000,0.000000,38.091994
224.000000,-34.000000,1174.000000,232.000000,-17.000000,1216.000000,0.000000,0.000000,0.000000,0.000000,46.010868
224.000000,-34.000000,1174.000000,243.000000,-15.000000,1205.000000,0.000000,0.000000,0.000000,0.000000,41.024383
224.000000,-34.000000,1174.000000,257.000000,-16.000000,1212.000000,0.000000,0.000000,0.000000,0.000000,53.450912
224.000000,-34.000000,1174.000000,250.000000,-10.000000,1210.000000,0.000000,0.000000,0.000000,0.000000,50.477718
224.000000,-34.000000,1174.000000,256.000000,-13.000000,1195.000000,0.000000,0.000000,0.000000,0.000000,43.657760
224.000000,-34.000000,1174.000000,267.000000,-16.000000,1195.000000,0.000000,0.000000,0.000000,0.000000,51.127292
224.000000,-34.000000,1174.000000,255.000000,-15.000000,1198.000000,0.000000,0.000000,0.000000,0.000000,43.566042
224.000000,-34.000000,1174.000000,245.000000,-21.000000,1208.000000,0.000000,0.000000,0.000000,0.000000,42.023803
224.000000,-34.000000,1174.000000,265.000000,-20.000000,1208.000000,0.000000,0.000000,0.000000,0.000000,55.072679
224.000000,-34.000000,1174.000000,242.000000,-5.000000,1220.000000,0.000000,0.000000,0.000000,0.000000,57.280014
224.000000,-34.000000,1174.000000,249.000000,-18.000000,1207.000000,0.000000,0.000000,0.000000,0.000000,44.384682
224.000000,-34.000000,1174.000000,247.000000,-19.000000,1217.000000,0.000000,0.000000,0.000000,0.000000,51.019604
224.000000,-34.000000,1174.000000,251.000000,-28.000000,1201.000000,0.000000,0.000000,0.000000,0.000000,38.652296
224.000000,-34.000000,1174.000000,235.000000,-23.000000,1217.000000,0.000000,0.000000,0.000000,0.000000,45.727453
224.000000,-34.000000,1174.000000,247.000000,-22.000000,1196.000000,0.000000,0.000000,0.000000,0.000000,34.014703
224.000000,-34.000000,1174.000000,242.000000,-27.000000,1225.000000,0.000000,0.000000,0.000000,0.000000,54.534393
224.000000,-34.000000,1174.000000,249.000000,-18.000000,1196.000000,0.000000,0.000000,0.000000,0.000000,36.945906
224.000000,-34.000000,1174.000000,232.000000,-8.000000,1212.000000,0.000000,0.000000,0.000000,0.000000,46.733286
224.000000,-34.000000,1174.000000,234.000000,-15.000000,1212.000000,0.000000,0.000000,0.000000,0.000000,43.646306
224.000000,-34.000000,1174.000000,236.000000,-19.000000,1203.000000,0.000000,0.000000,0.000000,0.000000,34.785054
224.000000,-34.000000,1174.000000,236.000000,-23.000000,1215.000000,0.000000,0.000000,0.000000,0.000000,44.113490
224.000000,-34.000000,1174.000000,237.000000,-20.000000,1230.000000,0.000000,0.000000,0.000000,0.000000,59.169249
224.000000,-34.000000,1174.000000,241.000000,-24.000000,1211.000000,0.000000,0.000000,0.000000,0.000000,41.928511
224.000000,-34.000000,1174.000000,251.000000,-14.000000,1210.000000,0.000000,0.000000,0.000000,0.000000,49.244289
224.000000,-34.000000,1174.000000,238.000000,-11.000000,1210.000000,0.000000,0.000000,0.000000,0.000000,44.955534
224.000000,-34.000000,1174.000000,240.000000,-21.000000,1200.000000,0.000000,0.000000,0.000000,0.000000,33.181320
224.000000,-34.000000,1174.000000,250.000000,-13.000000,1222.000000,0.000000,0.000000,0.000000,0.000000,58.489315
224.000000,-34.000000,1174.000000,251.000000,-26.000000,1190.000000,0.000000,0.000000,0.000000,0.000000,32.388269
224.000000,-34.000000,1174.000000,253.000000,-11.000000,1200.000000,0.000000,0.000000,0.000000,0.000000,45.232732
224.000000,-34.000000,1174.000000,249.000000,-25.000000,1211.000000,0.000000,0.000000,0.000000,0.000000,45.552168
224.000000,-34.000000,1174.000000,248.000000,-33.000000,1207.000000,0.000000,0.000000,0.000000,0.000000,40.816663
224.000000,-34.000000,1174.000000,245.000000,-25.000000,1222.000000,0.000000,0.000000,0.000000,0.000000,53.160135
224.000000,-34.000000,1174.000000,240.000000,-20.000000,1206.000000,0.000000,0.000000,0.000000,0.000000,38.418745
224.000000,-34.000000,1174.000000,247.000000,-17.000000,1214.000000,0.000000,0.000000,0.000000,0.000000,49.173163
224.000000,-34.000000,1174.000000,245.000000,-21.000000,1212.000000,0.000000,0.000000,0.000000,0.000000,45.321077
224.000000,-34.000000,1174.000000,253.000000,-8.000000,1197.000000,0.000000,0.000000,0.000000,0.000000,45.232732
224.000000,-34.000000,1174.000000,253.000000,-9.000000,1227.000000,0.000000,0.000000,0.000000,0.000000,65.383484
224.000000,-34.000000,1174.000000,254.000000,-17.000000,1215.000000,0.000000,0.000000,0.000000,0.000000,53.572381
224.000000,-34.000000,1174.000000,241.000000,-14.000000,1222.000000,0.000000,0.000000,0.000000,0.000000,54.708317
224.000000,-34.000000,1174.000000,250.000000,-27.000000,1222.000000,0.000000,0.000000,0.000000,0.000000,55.036352
224.000000,-34.000000,1174.000000,233.000000,-13.000000,1225.000000,0.000000,0.000000,0.000000,0.000000,55.883808
224.000000,-34.000000,1174.000000,237.000000,-19.000000,1212.000000,0.000000,0.000000,0.000000,0.000000,42.871902
224.000000,-34.000000,1174.000000,254.000000,-9.000000,1209.000000,0.000000,0.000000,0.000000,0.000000,52.440442
224.000000,-34.000000,1174.000000,240.000000,-11.000000,1203.000000,0.000000,0.000000,0.000000,0.000000,40.323690
224.000000,-34.000000,1174.000000,248.000000,-10.000000,1192.000000,0.000000,0.000000,0.000000,0.000000,38.418745
224.000000,-34.000000,1174.000000,254.000000,-21.000000,1229.000000,0.000000,0.000000,0.000000,0.000000,63.984373
224.000000,-34.000000,1174.000000,239.000000,-17.000000,1196.000000,0.000000,0.000000,0.000000,0.000000,31.591138
224.000000,-34.000000,1174.000000,250.000000,-18.000000,1233.000000,0.000000,0.000000,0.000000,0.000000,66.430415
224.000000,-34.000000,1174.000000,262.000000,-19.000000,1203.000000,0.000000,0.000000,0.000000,0.000000,50.099900
224.000000,-34.000000,1174.000000,248.000000,-26.000000,1207.000000,0.000000,0.000000,0.000000,0.000000,41.581246
224.000000,-34.000000,1174.000000,250.000000,-23.000000,1198.000000,0.000000,0.000000,0.000000,0.000000,37.054015
224.000000,-34.000000,1174.000000,244.000000,-13.000000,1208.000000,0.000000,0.000000,0.000000,0.000000,44.687806
224.000000,-34.000000,1174.000000,236.000000,-17.000000,1204.000000,0.000000,0.000000,0.000000,0.000000,36.510273
224.000000,-34.000000,1174.000000,229.000000,-17.000000,1220.000000,0.000000,0.000000,0.000000,0.000000,49.295030
224.000000,-34.000000,1174.000000,244.000000,-17.000000,1197.000000,0.000000,0.000000,0.000000,0.000000,34.899857
224.000000,-34.000000,1174.000000,237.000000,-16.000000,1203.000000,0.000000,0.000000,0.000000,0.000000,36.523965
224.000000,-34.000000,1174.000000,250.000000,-21.000000,1212.000000,0.000000,0.000000,0.000000,0.000000,47.843495
224.000000,-34.000000,1174.000000,244.000000,-16.000000,1203.000000,0.000000,0.000000,0.000000,0.000000,39.560081
224.000000,-34.000000,1174.000000,249.000000,-17.000000,1218.000000,0.000000,0.000000,0.000000,0.000000,53.385391
224.000000,-34.000000,1174.000000,242.000000,-14.000000,1205.000000,0.000000,0.000000,0.000000,0.000000,41.048752
224.000000,-34.000000,1174.000000,243.000000,-32.000000,1228.000000,0.000000,0.000000,0.000000,0.000000,57.280014
224.000000,-34.000000,1174.000000,249.000000,-18.000000,1223.000000,0.000000,0.000000,0.000000,0.000000,57.288742
224.000000,-34.000000,1174.000000,245.000000,-16.000000,1214.000000,0.000000,0.000000,0.000000,0.000000,48.631266
224.000000,-34.000000,1174.000000,240.000000,-23.000000,1208.000000,0.000000,0.000000,0.000000,0.000000,39.153544
224.000000,-34.000000,1174.000000,238.000000,-16.000000,1217.000000,0.000000,0.000000,0.000000,0.000000,48.672374
224.000000,-34.000000,1174.000000,257.000000,-11.000000,1209.000000,0.000000,0.000000,0.000000,0.000000,53.319790
224.000000,-34.000000,1174.000000,242.000000,-13.000000,1190.000000,0.000000,0.000000,0.000000,0.000000,31.953091
224.000000,-34.000000,1174.000000,255.000000,-4.000000,1213.000000,0.000000,0.000000,0.000000,0.000000,58.154965
224.000000,-34.000000,1174.000000,252.000000,-17.000000,1215.000000,0.000000,0.000000,0.000000,0.000000,52.478567
224.000000,-34.000000,1174.000000,501.000000,-19.000000,1211.000000,0.000000,0.000000,0.000000,0.000000,279.862466
224.000000,-34.000000,1174.000000,230.000000,-16.000000,1210.000000,0.000000,0.000000,0.000000,0.000000,40.693980
224.000000,-34.000000,1174.000000,256.000000,-16.000000,1200.000000,0.000000,0.000000,0.000000,0.000000,44.988888
224.000000,-34.000000,1174.000000,254.000000,-23.000000,1214.000000,0.000000,0.000000,0.000000,0.000000,51.195703
224.000000,-34.000000,1174.000000,232.000000,-16.000000,1187.000000,0.000000,0.000000,0.000000,0.000000,23.600847
224.000000,-34.000000,1174.000000,235.000000,-17.000000,1218.000000,0.000000,0.000000,0.000000,0.000000,48.435524
224.000000,-34.000000,1174.000000,246.000000,-18.000000,1213.000000,0.000000,0.000000,0.000000,0.000000,47.549974
224.000000,-34.000000,1174.000000,238.000000,-9.000000,1218.000000,0.000000,0.000000,0.000000,0.000000,52.507142
224.000000,-34.000000,1174.000000,249.000000,-9.000000,1206.000000,0.000000,0.000000,0.000000,0.000000,47.686476
224.000000,-34.000000,1174.000000,501.000000,-8.000000,1202.000000,0.000000,0.000000,0.000000,0.000000,279.622960
224.000000,-34.000000,1174.000000,256.000000,-18.000000,1210.000000,0.000000,0.000000,0.000000,0.000000,50.754310
224.000000,-34.000000,1174.000000,245.000000,-24.000000,1201.000000,0.000000,0.000000,0.000000,0.000000,35.637059
224.000000,-34.000000,1174.000000,235.000000,-34.000000,1183.000000,0.000000,0.000000,0.000000,0.000000,14.212670
224.000000,-34.000000,1174.000000,246.000000,-10.000000,1223.000000,0.000000,0.000000,0.000000,0.000000,58.830264
224.000000,-34.000000,1174.000000,237.000000,-18.000000,1205.000000,0.000000,0.000000,0.000000,0.000000,37.229021
224.000000,-34.000000,1174.000000,252.000000,-27.000000,1207.000000,0.000000,0.000000,0.000000,0.000000,43.840620
224.000000,-34.000000,1174.000000,247.000000,-19.000000,1219.000000,0.000000,0.000000,0.000000,0.000000,52.716221
224.000000,-34.000000,1174.000000,234.000000,-23.000000,1208.000000,0.000000,0.000000,0.000000,0.000000,37.107951
224.000000,-34.000000,1174.000000,244.000000,-24.000000,1212.000000,0.000000,0.000000,0.000000,0.000000,44.090815
224.000000,-34.000000,1174.000000,249.000000,-21.000000,1224.000000,0.000000,0.000000,0.000000,0.000000,57.393379
224.000000,-34.000000,1174.000000,249.000000,-25.000000,1213.000000,0.000000,0.000000,0.000000,0.000000,47.191101
224.000000,-34.000000,1174.000000,249.000000,-8.000000,1214.000000,0.000000,0.000000,0.000000,0.000000,53.860932
224.000000,-34.000000,1174.000000,267.000000,-16.000000,1209.000000,0.000000,0.000000,0.000000,0.000000,58.292367
224.000000,-34.000000,1174.000000,248.000000,-11.000000,1202.000000,0.000000,0.000000,0.000000,0.000000,43.462628
224.000000,-34.000000,1174.000000,248.000000,-19.000000,1221.000000,0.000000,0.000000,0.000000,0.000000,54.863467
224.000000,-34.000000,1174.000000,246.000000,-21.000000,1188.000000,0.000000,0.000000,0.000000,0.000000,29.137605
224.000000,-34.000000,1174.000000,239.000000,-15.000000,1235.000000,0.000000,0.000000,0.000000,0.000000,65.627738
224.000000,-34.000000,1174.000000,234.000000,-14.000000,1202.000000,0.000000,0.000000,0.000000,0.000000,35.832946
224.000000,-34.000000,1174.000000,237.000000,-11.000000,1225.000000,0.000000,0.000000,0.000000,0.000000,57.436922
224.000000,-34.000000,1174.000000,234.000000,-16.000000,1218.000000,0.000000,0.000000,0.000000,0.000000,48.579831
224.000000,-34.000000,1174.000000,238.000000,-21.000000,1224.000000,0.000000,0.000000,0.000000,0.000000,53.525695
224.000000,-34.000000,1174.000000,244.000000,-22.000000,1221.000000,0.000000,0.000000,0.000000,0.000000,52.469038
224.000000,-34.000000,1174.000000,247.000000,-19.000000,1225.000000,0.000000,0.000000,0.000000,0.000000,57.922362
224.000000,-34.000000,1174.000000,252.000000,-14.000000,1218.000000,0.000000,0.000000,0.000000,0.000000,55.856960
224.000000,-34.000000,1174.000000,235.000000,-14.000000,1210.000000,0.000000,0.000000,0.000000,0.000000,42.626283
224.000000,-34.000000,1174.000000,242.000000,-16.000000,1217.000000,0.000000,0.000000,0.000000,0.000000,49.969991
224.000000,-34.000000,1174.000000,230.000000,-15.000000,1211.000000,0.000000,0.000000,0.000000,0.000000,42.023803
224.000000,-34.000000,1174.000000,234.000000,-17.000000,1236.000000,0.000000,0.000000,0.000000,0.000000,65.061509
224.000000,-34.000000,1174.000000,244.000000,-24.000000,1206.000000,0.000000,0.000000,0.000000,0.000000,39.038443
224.000000,-34.000000,1174.000000,251.000000,-7.000000,1223.000000,0.000000,0.000000,0.000000,0.000000,62.120850
224.000000,-34.000000,1174.000000,247.000000,-23.000000,1216.000000,0.000000,0.000000,0.000000,0.000000,49.132474
224.000000,-34.000000,1174.000000,246.000000,-14.000000,1208.000000,0.000000,0.000000,0.000000,0.000000,45.166359
224.000000,-34.000000,1174.000000,240.000000,-6.000000,1230.000000,0.000000,0.000000,0.000000,0.000000,64.621978
224.000000,-34.000000,1174.000000,242.000000,-17.000000,1199.000000,0.000000,0.000000,0.000000,0.000000,35.185224
224.000000,-34.000000,1174.000000,246.000000,-7.000000,1218.000000,0.000000,0.000000,0.000000,0.000000,56.115951
224.000000,-34.000000,1174.000000,239.000000,-27.000000,1206.000000,0.000000,0.000000,0.000000,0.000000,36.027767
224.000000,-34.000000,1174.000000,243.000000,-16.000000,1225.000000,0.000000,0.000000,0.000000,0.000000,57.323643
224.000000,-34.000000,1174.000000,242.000000,-22.000000,1201.000000,0.000000,0.000000,0.000000,0.000000,34.597688
224.000000,-34.000000,1174.000000,229.000000,-13.000000,1215.000000,0.000000,0.000000,0.000000,0.000000,46.335731
224.000000,-34.000000,1174.000000,240.000000,-10.000000,1229.000000,0.000000,0.000000,0.000000,0.000000,62.104750
224.000000,-34.000000,1174.000000,251.000000,-16.000000,1199.000000,0.000000,0.000000,0.000000,0.000000,40.963398
224.000000,-34.000000,1174.000000,252.000000,-11.000000,1222.000000,0.000000,0.000000,0.000000,0.000000,60.141500
224.000000,-34.000000,1174.000000,248.000000,-20.000000,1195.000000,0.000000,0.000000,0.000000,0.000000,34.828150
224.000000,-34.000000,1174.000000,255.000000,-15.000000,1217.000000,0.000000,0.000000,0.000000,0.000000,56.311633
224.000000,-34.000000,1174.000000,238.000000,-24.000000,1186.000000,0.000000,0.000000,0.000000,0.000000,20.976177
224.000000,-34.000000,1174.000000,262.000000,-18.000000,1256.000000,0.000000,0.000000,0.000000,0.000000,91.782351
224.000000,-34.000000,1174.000000,258.000000,-28.000000,1194.000000,0.000000,0.000000,0.000000,0.000000,39.899875
224.000000,-34.000000,1174.000000,250.000000,-10.000000,1229.000000,0.000000,0.000000,0.000000,0.000000,65.398777
224.000000,-34.000000,1174.000000,241.000000,-15.000000,1196.000000,0.000000,0.000000,0.000000,0.000000,33.674916
224.000000,-34.000000,1174.000000,233.000000,-3.000000,1216.000000,0.000000,0.000000,0.000000,0.000000,52.971691
224.000000,-34.000000,1174.000000,250.000000,-33.000000,1216.000000,0.000000,0.000000,0.000000,0.000000,49.406477
224.000000,-34.000000,1174.000000,241.000000,-9.000000,1205.000000,0.000000,0.000000,0.000000,0.000000,43.301270
224.000000,-34.000000,1174.000000,251.000000,-11.000000,1217.000000,0.000000,0.000000,0.000000,0.000000,55.740470
224.000000,-34.000000,1174.000000,247.000000,-27.000000,1200.000000,0.000000,0.000000,0.000000,0.000000,35.411862
224.000000,-34.000000,1174.000000,235.000000,-10.000000,1210.000000,0.000000,0.000000,0.000000,0.000000,44.643029
224.000000,-34.000000,1174.000000,243.000000,-15.000000,1213.000000,0.000000,0.000000,0.000000,0.000000,47.360321
224.000000,-34.000000,1174.000000,262.000000,-23.000000,1209.000000,0.000000,0.000000,0.000000,0.000000,52.820451
224.000000,-34.000000,1174.000000,246.000000,-5.000000,1231.000000,0.000000,0.000000,0.000000,0.000000,67.631354
224.000000,-34.000000,1174.000000,242.000000,-31.000000,1205.000000,0.000000,0.000000,0.000000,0.000000,35.972211
224.000000,-34.000000,1174.000000,236.000000,-20.000000,1214.000000,0.000000,0.000000,0.000000,0.000000,44.045431
224.000000,-34.000000,1174.000000,242.000000,-23.000000,1215.000000,0.000000,0.000000,0.000000,0.000000,46.108568
224.000000,-34.000000,1174.000000,251.000000,-25.000000,1215.000000,0.000000,0.000000,0.000000,0.000000,49.909919
224.000000,-34.000000,1174.000000,251.000000,-9.000000,1202.000000,0.000000,0.000000,0.000000,0.000000,46.238512
224.000000,-34.000000,1174.000000,250.000000,-18.000000,1208.000000,0.000000,0.000000,0.000000,0.000000,45.694639
224.000000,-34.000000,1174.000000,250.000000,-11.000000,1202.000000,0.000000,0.000000,0.000000,0.000000,44.598206
224.000000,-34.000000,1174.000000,244.000000,-13.000000,1218.000000,0.000000,0.000000,0.000000,0.000000,52.697249
224.000000,-34.000000,1174.000000,245.000000,-10.000000,1217.000000,0.000000,0.000000,0.000000,0.000000,53.535035
224.000000,-34.000000,1174.000000,246.000000,-6.000000,1227.000000,0.000000,0.000000,0.000000,0.000000,63.851390
224.000000,-34.000000,1174.000000,241.000000,-21.000000,1206.000000,0.000000,0.000000,0.000000,0.000000,38.496753
224.000000,-34.000000,1174.000000,241.000000,-24.000000,1211.000000,0.000000,0.000000,0.000000,0.000000,41.928511
224.000000,-34.000000,1174.000000,244.000000,-25.000000,1221.000000,0.000000,0.000000,0.000000,0.000000,51.865210
224.000000,-34.000000,1174.000000,238.000000,-29.000000,1219.000000,0.000000,0.000000,0.000000,0.000000,47.391982
224.000000,-34.000000,1174.000000,237.000000,-21.000000,1219.000000,0.000000,0.000000,0.000000,0.000000,48.610698
224.000000,-34.000000,1174.000000,244.000000,-25.000000,1205.000000,0.000000,0.000000,0.000000,0.000000,37.973675
224.000000,-34.000000,1174.000000,258.000000,-4.000000,1213.000000,0.000000,0.000000,0.000000,0.000000,59.808026
224.000000,-34.000000,1174.000000,258.000000,-9.000000,1206.000000,0.000000,0.000000,0.000000,0.000000,52.962251
224.000000,-34.000000,1174.000000,250.000000,-1.000000,1215.000000,0.000000,0.000000,0.000000,0.000000,58.702640
224.000000,-34.000000,1174.000000,247.000000,-18.000000,1242.000000,0.000000,0.000000,0.000000,0.000000,73.545904
224.000000,-34.000000,1174.000000,251.000000,-14.000000,1200.000000,0.000000,0.000000,0.000000,0.000000,42.485292
224.000000,-34.000000,1174.000000,246.000000,-19.000000,1225.000000,0.000000,0.000000,0.000000,0.000000,57.532599
224.000000,-34.000000,1174.000000,225.000000,-14.000000,1209.000000,0.000000,0.000000,0.000000,0.000000,40.323690
224.000000,-34.000000,1174.000000,233.000000,-21.000000,1213.000000,0.000000,0.000000,0.000000,0.000000,42.083251
224.000000,-34.000000,1174.000000,240.000000,-14.000000,1210.000000,0.000000,0.000000,0.000000,0.000000,44.181444
224.000000,-34.000000,1174.000000,242.000000,-22.000000,1210.000000,0.000000,0.000000,0.000000,0.000000,42.000000
224.000000,-34.000000,1174.000000,251.000000,-16.000000,1222.000000,0.000000,0.000000,0.000000,0.000000,57.939624
224.000000,-34.000000,1174.000000,244.000000,-14.000000,1202.000000,0.000000,0.000000,0.000000,0.000000,39.799497
224.000000,-34.000000,1174.000000,257.000000,-24.000000,1227.000000,0.000000,0.000000,0.000000,0.000000,63.229740
224.000000,-34.000000,1174.000000,250.000000,-13.000000,1208.000000,0.000000,0.000000,0.000000,0.000000,47.675990
224.000000,-34.000000,1174.000000,256.000000,-7.000000,1213.000000,0.000000,0.000000,0.000000,0.000000,57.218878
224.000000,-34.000000,1174.000000,259.000000,-12.000000,1216.000000,0.000000,0.000000,0.000000,0.000000,58.932164
224.000000,-34.000000,1174.000000,239.000000,-18.000000,1196.000000,0.000000,0.000000,0.000000,0.000000,31.064449
224.000000,-34.000000,1174.000000,241.000000,-14.000000,1231.000000,0.000000,0.000000,0.000000,0.000000,62.753486
224.000000,-34.000000,1174.000000,237.000000,-27.000000,1194.000000,0.000000,0.000000,0.000000,0.000000,24.859606
224.000000,-34.000000,1174.000000,248.000000,-21.000000,1233.000000,0.000000,0.000000,0.000000,0.000000,65.007692
224.000000,-34.000000,1174.000000,244.000000,-17.000000,1195.000000,0.000000,0.000000,0.000000,0.000000,33.615473
224.000000,-34.000000,1174.000000,247.000000,-12.000000,1204.000000,0.000000,0.000000,0.000000,0.000000,43.737855
224.000000,-34.000000,1174.000000,245.000000,-7.000000,1209.000000,0.000000,0.000000,0.000000,0.000000,48.938737
224.000000,-34.000000,1174.000000,245.000000,-20.000000,1220.000000,0.000000,0.000000,0.000000,0.000000,52.469038
224.000000,-34.000000,1174.000000,246.000000,-10.000000,1217.000000,0.000000,0.000000,0.000000,0.000000,53.935146
224.000000,-34.000000,1174.000000,241.000000,-19.000000,1204.000000,0.000000,0.000000,0.000000,0.000000,37.603191
224.000000,-34.000000,1174.000000,235.000000,-6.000000,1209.000000,0.000000,0.000000,0.000000,0.000000,46.151923
224.000000,-34.000000,1174.000000,238.000000,-16.000000,1220.000000,0.000000,0.000000,0.000000,0.000000,51.341991
224.000000,-34.000000,1174.000000,245.000000,-8.000000,1200.000000,0.000000,0.000000,0.000000,0.000000,42.343831
224.000000,-34.000000,1174.000000,235.000000,-15.000000,1219.000000,0.000000,0.000000,0.000000,0.000000,50.069951
224.000000,-34.000000,1174.000000,247.000000,-20.000000,1205.000000,0.000000,0.000000,0.000000,0.000000,41.060930
224.000000,-34.000000,1174.000000,252.000000,-16.000000,1234.000000,0.000000,0.000000,0.000000,0.000000,68.614867
224.000000,-34.000000,1174.000000,255.000000,-24.000000,1204.000000,0.000000,0.000000,0.000000,0.000000,44.283180
224.000000,-34.000000,1174.000000,259.000000,-24.000000,1206.000000,0.000000,0.000000,0.000000,0.000000,48.466483
224.000000,-34.000000,1174.000000,249.000000,-13.000000,1198.000000,0.000000,0.000000,0.000000,0.000000,40.521599
224.000000,-34.000000,1174.000000,240.000000,-7.000000,1216.000000,0.000000,0.000000,0.000000,0.000000,52.430907
224.000000,-34.000000,1174.000000,237.000000,-19.000000,1202.000000,0.000000,0.000000,0.000000,0.000000,34.322005
224.000000,-34.000000,1174.000000,241.000000,-11.000000,1225.000000,0.000000,0.000000,0.000000,0.000000,58.472216
224.000000,-34.000000,1174.000000,239.000000,-14.000000,1197.000000,0.000000,0.000000,0.000000,0.000000,33.970576
224.000000,-34.000000,1174.000000,245.000000,-25.000000,1223.000000,0.000000,0.000000,0.000000,0.000000,54.064776
224.000000,-34.000000,1174.000000,244.000000,-26.000000,1200.000000,0.000000,0.000000,0.000000,0.000000,33.763886
224.000000,-34.000000,1174.000000,243.000000,-8.000000,1236.000000,0.000000,0.000000,0.000000,0.000000,69.864154
224.000000,-34.000000,1174.000000,250.000000,-21.000000,1186.000000,0.000000,0.000000,0.000000,0.000000,31.448370
224.000000,-34.000000,1174.000000,247.000000,-9.000000,1237.000000,0.000000,0.000000,0.000000,0.000000,71.575135
224.000000,-34.000000,1174.000000,252.000000,-10.000000,1230.000000,0.000000,0.000000,0.000000,0.000000,67.052218
224.000000,-34.000000,1174.000000,247.000000,-14.000000,1197.000000,0.000000,0.000000,0.000000,0.000000,38.183766
224.000000,-34.000000,1174.000000,248.000000,-11.000000,1195.000000,0.000000,0.000000,0.000000,0.000000,39.319207
224.000000,-34.000000,1174.000000,231.000000,-18.000000,1219.000000,0.000000,0.000000,0.000000,0.000000,48.270074
224.000000,-34.000000,1174.000000,243.000000,-25.000000,1230.000000,0.000000,0.000000,0.000000,0.000000,59.816386
224.000000,-34.000000,1174.000000,239.000000,-18.000000,1186.000000,0.000000,0.000000,0.000000,0.000000,25.000000
224.000000,-34.000000,1174.000000,242.000000,-9.000000,1218.000000,0.000000,0.000000,0.000000,0.000000,53.712196
224.000000,-34.000000,1174.000000,245.000000,-9.000000,1200.000000,0.000000,0.000000,0.000000,0.000000,41.737274
224.000000,-34.000000,1174.000000,236.000000,-10.000000,1216.000000,0.000000,0.000000,0.000000,0.000000,49.839743
224.000000,-34.000000,1174.000000,242.000000,-6.000000,1201.000000,0.000000,0.000000,0.000000,0.000000,42.860238
224.000000,-34.000000,1174.000000,254.000000,-14.000000,1226.000000,0.000000,0.000000,0.000000,0.000000,63.277168
224.000000,-34.000000,1174.000000,249.000000,-25.000000,1197.000000,0.000000,0.000000,0.000000,0.000000,35.142567
224.000000,-34.000000,1174.000000,247.000000,-27.000000,1216.000000,0.000000,0.000000,0.000000,0.000000,48.394215
224.000000,-34.000000,1174.000000,244.000000,-12.000000,1214.000000,0.000000,0.000000,0.000000,0.000000,49.839743
224.000000,-34.000000,1174.000000,245.000000,-11.000000,1200.000000,0.000000,0.000000,0.000000,0.000000,40.570926
224.000000,-34.000000,1174.000000,248.000000,-18.000000,1206.000000,0.000000,0.000000,0.000000,0.000000,43.081318
224.000000,-34.000000,1174.000000,241.000000,-20.000000,1211.000000,0.000000,0.000000,0.000000,0.000000,43.058100
224.000000,-34.000000,1174.000000,242.000000,-20.000000,1221.000000,0.000000,0.000000,0.000000,0.000000,52.239832
224.000000,-34.000000,1174.000000,243.000000,-26.000000,1207.000000,0.000000,0.000000,0.000000,0.000000,38.910153
224.000000,-34.000000,1174.000000,498.000000,-10.000000,1231.000000,0.000000,0.000000,0.000000,0.000000,280.893218
224.000000,-34.000000,1174.000000,255.000000,-15.000000,1209.000000,0.000000,0.000000,0.000000,0.000000,50.467812
224.000000,-34.000000,1174.000000,235.000000,-14.000000,1210.000000,0.000000,0.000000,0.000000,0.000000,42.626283
224.000000,-34.000000,1174.000000,252.000000,-18.000000,1217.000000,0.000000,0.000000,0.000000,0.000000,53.749419
224.000000,-34.000000,1174.000000,249.000000,-20.000000,1204.000000,0.000000,0.000000,0.000000,0.000000,41.484937
224.000000,-34.000000,1174.000000,242.000000,-25.000000,1216.000000,0.000000,0.000000,0.000000,0.000000,46.572524
224.000000,-34.000000,1174.000000,238.000000,-22.000000,1208.000000,0.000000,0.000000,0.000000,0.000000,38.678159
224.000000,-34.000000,1174.000000,246.000000,-21.000000,1213.000000,0.000000,0.000000,0.000000,0.000000,46.626173
224.000000,-34.000000,1174.000000,233.000000,-19.000000,1203.000000,0.000000,0.000000,0.000000,0.000000,33.867388
224.000000,-34.000000,1174.000000,244.000000,-9.000000,1221.000000,0.000000,0.000000,0.000000,0.000000,56.868269
224.000000,-34.000000,1174.000000,248.000000,-17.000000,1201.000000,0.000000,0.000000,0.000000,0.000000,39.924930
224.000000,-34.000000,1174.000000,242.000000,-23.000000,1208.000000,0.000000,0.000000,0.000000,0.000000,40.012498
224.000000,-34.000000,1174.000000,241.000000,-16.000000,1194.000000,0.000000,0.000000,0.000000,0.000000,31.827661
224.000000,-34.000000,1174.000000,243.000000,-21.000000,1219.000000,0.000000,0.000000,0.000000,0.000000,50.547008
224.000000,-34.000000,1174.000000,235.000000,-16.000000,1205.000000,0.000000,0.000000,0.000000,0.000000,37.496667
224.000000,-34.000000,1174.000000,241.000000,-5.000000,1214.000000,0.000000,0.000000,0.000000,0.000000,52.249402
224.000000,-34.000000,1174.000000,230.000000,-9.000000,1226.000000,0.000000,0.000000,0.000000,0.000000,58.008620
224.000000,-34.000000,1174.000000,236.000000,-21.000000,1217.000000,0.000000,0.000000,0.000000,0.000000,46.497312
224.000000,-34.000000,1174.000000,243.000000,-10.000000,1210.000000,0.000000,0.000000,0.000000,0.000000,47.254629
224.000000,-34.000000,1174.000000,240.000000,-14.000000,1195.000000,0.000000,0.000000,0.000000,0.000000,33.120990
224.000000,-34.000000,1174.000000,253.000000,-25.000000,1213.000000,0.000000,0.000000,0.000000,0.000000,49.426713
224.000000,-34.000000,1174.000000,260.000000,-20.000000,1208.000000,0.000000,0.000000,0.000000,0.000000,51.458721
224.000000,-34.000000,1174.000000,246.000000,-12.000000,1210.000000,0.000000,0.000000,0.000000,0.000000,47.581509
224.000000,-34.000000,1174.000000,252.000000,-19.000000,1203.000000,0.000000,0.000000,0.000000,0.000000,43.011626
224.000000,-34.000000,1174.000000,238.000000,-21.000000,1200.000000,0.000000,0.000000,0.000000,0.000000,32.264532
224.000000,-34.000000,1174.000000,242.000000,-8.000000,1206.000000,0.000000,0.000000,0.000000,0.000000,44.988888
224.000000,-34.000000,1174.000000,236.000000,-14.000000,1203.000000,0.000000,0.000000,0.000000,0.000000,37.215588
224.000000,-34.000000,1174.000000,239.000000,-14.000000,1215.000000,0.000000,0.000000,0.000000,0.000000,48.020829
224.000000,-34.000000,1174.000000,244.000000,-16.000000,1211.000000,0.000000,0.000000,0.000000,0.000000,45.749317
224.000000,-34.000000,1174.000000,255.000000,-24.000000,1223.000000,0.000000,0.000000,0.000000,0.000000,58.838763
224.000000,-34.000000,1174.000000,248.000000,-14.000000,1213.000000,0.000000,0.000000,0.000000,0.000000,49.969991
224.000000,-34.000000,1174.000000,254.000000,-9.000000,1208.000000,0.000000,0.000000,0.000000,0.000000,51.778374
224.000000,-34.000000,1174.000000,249.000000,-19.000000,1212.000000,0.000000,0.000000,0.000000,0.000000,47.895720
224.000000,-34.000000,1174.000000,238.000000,-26.000000,1197.000000,0.000000,0.000000,0.000000,0.000000,28.089144
224.000000,-34.000000,1174.000000,243.000000,-21.000000,1205.000000,0.000000,0.000000,0.000000,0.000000,38.613469
224.000000,-34.000000,1174.000000,254.000000,-13.000000,1206.000000,0.000000,0.000000,0.000000,0.000000,48.631266
224.000000,-34.000000,1174.000000,228.000000,-20.000000,1203.000000,0.000000,0.000000,0.000000,0.000000,32.449961
224.000000,-34.000000,1174.000000,265.000000,-17.000000,1221.000000,0.000000,0.000000,0.000000,0.000000,64.645185
224.000000,-34.000000,1174.000000,249.000000,-15.000000,1205.000000,0.000000,0.000000,0.000000,0.000000,44.124823
224.000000,-34.000000,1174.000000,242.000000,-12.000000,1211.000000,0.000000,0.000000,0.000000,0.000000,46.658333
224.000000,-34.000000,1174.000000,253.000000,-6.000000,1213.000000,0.000000,0.000000,0.000000,0.000000,56.089215
224.000000,-34.000000,1174.000000,249.000000,-11.000000,1206.000000,0.000000,0.000000,0.000000,0.000000,46.669048
224.000000,-34.000000,1174.000000,248.000000,-30.000000,1197.000000,0.000000,0.000000,0.000000,0.000000,33.481338
224.000000,-34.000000,1174.000000,243.000000,-17.000000,1210.000000,0.000000,0.000000,0.000000,0.000000,44.113490
224.000000,-34.000000,1174.000000,251.000000,-29.000000,1199.000000,0.000000,0.000000,0.000000,0.000000,37.134889
224.000000,-34.000000,1174.000000,240.000000,-21.000000,1235.000000,0.000000,0.000000,0.000000,0.000000,64.389440
224.000000,-34.000000,1174.000000,246.000000,-11.000000,1208.000000,0.000000,0.000000,0.000000,0.000000,46.572524
224.000000,-34.000000,1174.000000,244.000000,-20.000000,1224.000000,0.000000,0.000000,0.000000,0.000000,55.641711
224.000000,-34.000000,1174.000000,240.000000,-15.000000,1199.000000,0.000000,0.000000,0.000000,0.000000,35.242020
224.000000,-34.000000,1174.000000,251.000000,-6.000000,1211.000000,0.000000,0.000000,0.000000,0.000000,53.684262
224.000000,-34.000000,1174.000000,235.000000,-23.000000,1212.000000,0.000000,0.000000,0.000000,0.000000,41.060930
224.000000,-34.000000,1174.000000,243.000000,-17.000000,1219.000000,0.000000,0.000000,0.000000,0.000000,51.720402
224.000000,-34.000000,1174.000000,239.000000,-15.000000,1213.000000,0.000000,0.000000,0.000000,0.000000,45.902070
224.000000,-34.000000,1174.000000,240.000000,-21.000000,1201.000000,0.000000,0.000000,0.000000,0.000000,33.970576
224.000000,-34.000000,1174.000000,238.000000,-8.000000,1217.000000,0.000000,0.000000,0.000000,0.000000,52.163205
224.000000,-34.000000,1174.000000,250.000000,-9.000000,1201.000000,0.000000,0.000000,0.000000,0.000000,45.055521
224.000000,-34.000000,1174.000000,240.000000,-17.000000,1219.000000,0.000000,0.000000,0.000000,0.000000,50.695167
224.000000,-34.000000,1174.000000,244.000000,-16.000000,1212.000000,0.000000,0.000000,0.000000,0.000000,46.561787
224.000000,-34.000000,1174.000000,245.000000,-20.000000,1210.000000,0.000000,0.000000,0.000000,0.000000,43.965896
224.000000,-34.000000,1174.000000,238.000000,-11.000000,1189.000000,0.000000,0.000000,0.000000,0.000000,30.822070
224.000000,-34.000000,1174.000000,240.000000,-20.000000,1214.000000,0.000000,0.000000,0.000000,0.000000,45.299007
224.000000,-34.000000,1174.000000,241.000000,-17.000000,1214.000000,0.000000,0.000000,0.000000,0.000000,46.669048
224.000000,-34.000000,1174.000000,250.000000,-14.000000,1209.000000,0.000000,0.000000,0.000000,0.000000,47.968740
224.000000,-34.000000,1174.000000,246.000000,-9.000000,1221.000000,0.000000,0.000000,0.000000,0.000000,57.602083
224.000000,-34.000000,1174.000000,245.000000,-18.000000,1209.000000,0.000000,0.000000,0.000000,0.000000,43.840620
224.000000,-34.000000,1174.000000,247.000000,-26.000000,1226.000000,0.000000,0.000000,0.000000,0.000000,57.419509
224.000000,-34.000000,1174.000000,247.000000,-16.000000,1215.000000,0.000000,0.000000,0.000000,0.000000,50.338852
224.000000,-34.000000,1174.000000,240.000000,-21.000000,1213.000000,0.000000,0.000000,0.000000,0.000000,44.113490
224.000000,-34.000000,1174.000000,241.000000,-19.000000,1211.000000,0.000000,0.000000,0.000000,0.000000,43.393548
224.000000,-34.000000,1174.000000,252.000000,-11.000000,1208.000000,0.000000,0.000000,0.000000,0.000000,49.689033
224.000000,-34.000000,1174.000000,249.000000,-21.000000,1206.000000,0.000000,0.000000,0.000000,0.000000,42.638011
224.000000,-34.000000,1174.000000,234.000000,-13.000000,1209.000000,0.000000,0.000000,0.000000,0.000000,42.023803
224.000000,-34.000000,1174.000000,250.000000,-25.000000,1217.000000,0.000000,0.000000,0.000000,0.000000,51.048996
224.000000,-34.000000,1174.000000,234.000000,-16.000000,1212.000000,0.000000,0.000000,0.000000,0.000000,43.220366
224.000000,-34.000000,1174.000000,252.000000,-22.000000,1204.000000,0.000000,0.000000,0.000000,0.000000,42.755117
224.000000,-34.000000,1174.000000,254.000000,-17.000000,1200.000000,0.000000,0.000000,0.000000,0.000000,43.185646
224.000000,-34.000000,1174.000000,249.000000,-18.000000,1229.000000,0.000000,0.000000,0.000000,0.000000,62.498000
224.000000,-34.000000,1174.000000,240.000000,-16.000000,1216.000000,0.000000,0.000000,0.000000,0.000000,48.414874
224.000000,-34.000000,1174.000000,234.000000,-23.000000,1203.000000,0.000000,0.000000,0.000000,0.000000,32.588341
224.000000,-34.000000,1174.000000,251.000000,-24.000000,1198.000000,0.000000,0.000000,0.000000,0.000000,37.483330
224.000000,-34.000000,1174.000000,246.000000,-14.000000,1216.000000,0.000000,0.000000,0.000000,0.000000,51.458721
224.000000,-34.000000,1174.000000,261.000000,-21.000000,1206.000000,0.000000,0.000000,0.000000,0.000000,50.616203
224.000000,-34.000000,1174.000000,248.000000,-8.000000,1204.000000,0.000000,0.000000,0.000000,0.000000,46.389654
224.000000,-34.000000,1174.000000,249.000000,-10.000000,1206.000000,0.000000,0.000000,0.000000,0.000000,47.169906
224.000000,-34.000000,1174.000000,247.000000,-7.000000,1217.000000,0.000000,0.000000,0.000000,0.000000,55.740470
224.000000,-34.000000,1174.000000,241.000000,-26.000000,1217.000000,0.000000,0.000000,0.000000,0.000000,46.925473
224.000000,-34.000000,1174.000000,245.000000,-23.000000,1197.000000,0.000000,0.000000,0.000000,0.000000,33.030289
224.000000,-34.000000,1174.000000,242.000000,-27.000000,1204.000000,0.000000,0.000000,0.000000,0.000000,35.679126
224.000000,-34.000000,1174.000000,231.000000,-13.000000,1209.000000,0.000000,0.000000,0.000000,0.000000,41.412558
224.000000,-34.000000,1174.000000,247.000000,-20.000000,1195.000000,0.000000,0.000000,0.000000,0.000000,34.146742
224.000000,-34.000000,1174.000000,239.000000,-18.000000,1209.000000,0.000000,0.000000,0.000000,0.000000,41.303753
224.000000,-34.000000,1174.000000,246.000000,-20.000000,1211.000000,0.000000,0.000000,0.000000,0.000000,45.265881
224.000000,-34.000000,1174.000000,240.000000,-20.000000,1224.000000,0.000000,0.000000,0.000000,0.000000,54.332311
224.000000,-34.000000,1174.000000,258.000000,-8.000000,1201.000000,0.000000,0.000000,0.000000,0.000000,50.606324
224.000000,-34.000000,1174.000000,252.000000,-24.000000,1206.000000,0.000000,0.000000,0.000000,0.000000,43.680659
224.000000,-34.000000,1174.000000,250.000000,-26.000000,1210.000000,0.000000,0.000000,0.000000,0.000000,45.122057
224.000000,-34.000000,1174.000000,253.000000,-23.000000,1211.000000,0.000000,0.000000,0.000000,0.000000,48.280431
224.000000,-34.000000,1174.000000,238.000000,-21.000000,1210.000000,0.000000,0.000000,0.000000,0.000000,40.755368
224.000000,-34.000000,1174.000000,242.000000,-16.000000,1223.000000,0.000000,0.000000,0.000000,0.000000,55.217751
224.000000,-34.000000,1174.000000,240.000000,-17.000000,1224.000000,0.000000,0.000000,0.000000,0.000000,55.181519
224.000000,-34.000000,1174.000000,244.000000,-11.000000,1214.000000,0.000000,0.000000,0.000000,0.000000,50.289164
224.000000,-34.000000,1174.000000,241.000000,-13.000000,1206.000000,0.000000,0.000000,0.000000,0.000000,41.880783
224.000000,-34.000000,1174.000000,253.000000,-13.000000,1201.000000,0.000000,0.000000,0.000000,0.000000,44.844175
224.000000,-34.000000,1174.000000,250.000000,-20.000000,1223.000000,0.000000,0.000000,0.000000,0.000000,57.210139
224.000000,-34.000000,1174.000000,232.000000,-22.000000,1199.000000,0.000000,0.000000,0.000000,0.000000,28.861739
224.000000,-34.000000,1174.000000,245.000000,-16.000000,1210.000000,0.000000,0.000000,0.000000,0.000000,45.398238
224.000000,-34.000000,1174.000000,231.000000,-21.000000,1201.000000,0.000000,0.000000,0.000000,0.000000,30.773365
224.000000,-34.000000,1174.000000,240.000000,-26.000000,1227.000000,0.000000,0.000000,0.000000,0.000000,55.937465
224.000000,-34.000000,1174.000000,245.000000,-17.000000,1215.000000,0.000000,0.000000,0.000000,0.000000,49.101935
224.000000,-34.000000,1174.000000,250.000000,-23.000000,1211.000000,0.000000,0.000000,0.000000,0.000000,46.540305
224.000000,-34.000000,1174.000000,246.000000,-16.000000,1224.000000,0.000000,0.000000,0.000000,0.000000,57.515215
224.000000,-34.000000,1174.000000,246.000000,-22.000000,1190.000000,0.000000,0.000000,0.000000,0.000000,29.732137
224.000000,-34.000000,1174.000000,249.000000,-9.000000,1212.000000,0.000000,0.000000,0.000000,0.000000,51.903757
224.000000,-34.000000,1174.000000,253.000000,-14.000000,1211.000000,0.000000,0.000000,0.000000,0.000000,51.088159
224.000000,-34.000000,1174.000000,245.000000,-20.000000,1207.000000,0.000000,0.000000,0.000000,0.000000,41.545156
224.000000,-34.000000,1174.000000,241.000000,-16.000000,1206.000000,0.000000,0.000000,0.000000,0.000000,40.459857
224.000000,-34.000000,1174.000000,249.000000,-19.000000,1209.000000,0.000000,0.000000,0.000000,0.000000,45.552168
224.000000,-34.000000,1174.000000,236.000000,-13.000000,1215.000000,0.000000,0.000000,0.000000,0.000000,47.602521
224.000000,-34.000000,1174.000000,242.000000,-9.000000,1189.000000,0.000000,0.000000,0.000000,0.000000,34.263683
224.000000,-34.000000,1174.000000,245.000000,-16.000000,1213.000000,0.000000,0.000000,0.000000,0.000000,47.812132
224.000000,-34.000000,1174.000000,251.000000,-20.000000,1204.000000,0.000000,0.000000,0.000000,0.000000,42.720019
224.000000,-34.000000,1174.000000,237.000000,-15.000000,1213.000000,0.000000,0.000000,0.000000,0.000000,45.287967
224.000000,-34.000000,1174.000000,255.000000,-5.000000,1216.000000,0.000000,0.000000,0.000000,0.000000,59.715995
224.000000,-34.000000,1174.000000,238.000000,-25.000000,1207.000000,0.000000,0.000000,0.000000,0.000000,36.959437
224.000000,-34.000000,1174.000000,253.000000,-17.000000,1211.000000,0.000000,0.000000,0.000000,0.000000,49.989999
224.000000,-34.000000,1174.000000,250.000000,-14.000000,1214.000000,0.000000,0.000000,0.000000,0.000000,51.730069
224.000000,-34.000000,1174.000000,247.000000,-15.000000,1212.000000,0.000000,0.000000,0.000000,0.000000,48.311489
224.000000,-34.000000,1174.000000,240.000000,-20.000000,1200.000000,0.000000,0.000000,0.000000,0.000000,33.585711
224.000000,-34.000000,1174.000000,254.000000,-15.000000,1201.000000,0.000000,0.000000,0.000000,0.000000,44.609416
224.000000,-34.000000,1174.000000,250.000000,-18.000000,1206.000000,0.000000,0.000000,0.000000,0.000000,44.226689
224.000000,-34.000000,1174.000000,244.000000,-5.000000,1222.000000,0.000000,0.000000,0.000000,0.000000,59.539903
224.000000,-34.000000,1174.000000,242.000000,-19.000000,1210.000000,0.000000,0.000000,0.000000,0.000000,42.953463
224.000000,-34.000000,1174.000000,256.000000,-13.000000,1205.000000,0.000000,0.000000,0.000000,0.000000,49.254441
224.000000,-34.000000,1174.000000,242.000000,-23.000000,1204.000000,0.000000,0.000000,0.000000,0.000000,36.674242
224.000000,-34.000000,1174.000000,248.000000,-26.000000,1196.000000,0.000000,0.000000,0.000000,0.000000,33.526109
224.000000,-34.000000,1174.000000,249.000000,-18.000000,1216.000000,0.000000,0.000000,0.000000,0.000000,51.429563
224.000000,-34.000000,1174.000000,245.000000,-10.000000,1227.000000,0.000000,0.000000,0.000000,0.000000,61.854668
224.000000,-34.000000,1174.000000,248.000000,-16.000000,1208.000000,0.000000,0.000000,0.000000,0.000000,45.343136
224.000000,-34.000000,1174.000000,250.000000,-16.000000,1203.000000,0.000000,0.000000,0.000000,0.000000,42.906876
224.000000,-34.000000,1174.000000,243.000000,-15.000000,1201.000000,0.000000,0.000000,0.000000,0.000000,38.091994
224.000000,-34.000000,1174.000000,250.000000,-37.000000,1213.000000,0.000000,0.000000,0.000000,0.000000,46.968074
224.000000,-34.000000,1174.000000,249.000000,-13.000000,1196.000000,0.000000,0.000000,0.000000,0.000000,39.370039
224.000000,-34.000000,1174.000000,240.000000,-26.000000,1207.000000,0.000000,0.000000,0.000000,0.000000,37.536649
224.000000,-34.000000,1174.000000,249.000000,-19.000000,1209.000000,0.000000,0.000000,0.000000,0.000000,45.552168
224.000000,-34.000000,1174.000000,244.000000,-12.000000,1228.000000,0.000000,0.000000,0.000000,0.000000,61.644140
224.000000,-34.000000,1174.000000,251.000000,-14.000000,1212.000000,0.000000,0.000000,0.000000,0.000000,50.724747
224.000000,-34.000000,1174.000000,253.000000,-20.000000,1203.000000,0.000000,0.000000,0.000000,0.000000,43.335897
224.000000,-34.000000,1174.000000,245.000000,-19.000000,1198.000000,0.000000,0.000000,0.000000,0.000000,35.242020
224.000000,-34.000000,1174.000000,239.000000,-20.000000,1212.000000,0.000000,0.000000,0.000000,0.000000,43.185646
224.000000,-34.000000,1174.000000,249.000000,-11.000000,1225.000000,0.000000,0.000000,0.000000,0.000000,61.278055
224.000000,-34.000000,1174.000000,245.000000,-17.000000,1212.000000,0.000000,0.000000,0.000000,0.000000,46.626173
224.000000,-34.000000,1174.000000,253.000000,-18.000000,1212.000000,0.000000,0.000000,0.000000,0.000000,50.408333
224.000000,-34.000000,1174.000000,237.000000,-28.000000,1214.000000,0.000000,0.000000,0.000000,0.000000,42.485292
224.000000,-34.000000,1174.000000,248.000000,-22.000000,1217.000000,0.000000,0.000000,0.000000,0.000000,50.685304
224.000000,-34.000000,1174.000000,233.000000,-17.000000,1220.000000,0.000000,0.000000,0.000000,0.000000,49.859803
224.000000,-34.000000,1174.000000,249.000000,-18.000000,1217.000000,0.000000,0.000000,0.000000,0.000000,52.249402
224.000000,-34.000000,1174.000000,249.000000,-19.000000,1204.000000,0.000000,0.000000,0.000000,0.000000,41.833001
224.000000,-34.000000,1174.000000,253.000000,-10.000000,1206.000000,0.000000,0.000000,0.000000,0.000000,49.406477
224.000000,-34.000000,1174.000000,243.000000,-9.000000,1209.000000,0.000000,0.000000,0.000000,0.000000,47.021272
224.000000,-34.000000,1174.000000,253.000000,-16.000000,1200.000000,0.000000,0.000000,0.000000,0.000000,42.906876
224.000000,-34.000000,1174.000000,241.000000,-10.000000,1197.000000,0.000000,0.000000,0.000000,0.000000,37.336309
224.000000,-34.000000,1174.000000,238.000000,-17.000000,1213.000000,0.000000,0.000000,0.000000,0.000000,44.788391
224.000000,-34.000000,1174.000000,254.000000,-19.000000,1208.000000,0.000000,0.000000,0.000000,0.000000,47.759816
224.000000,-34.000000,1174.000000,243.000000,-20.000000,1213.000000,0.000000,0.000000,0.000000,0.000000,45.585085
224.000000,-34.000000,1174.000000,235.000000,-20.000000,1214.000000,0.000000,0.000000,0.000000,0.000000,43.783559
224.000000,-34.000000,1174.000000,239.000000,-20.000000,1216.000000,0.000000,0.000000,0.000000,0.000000,46.743984
224.000000,-34.000000,1174.000000,220.000000,-17.000000,1217.000000,0.000000,0.000000,0.000000,0.000000,46.411206
224.000000,-34.000000,1174.000000,237.000000,-3.000000,1204.000000,0.000000,0.000000,0.000000,0.000000,45.055521
224.000000,-34.000000,1174.000000,247.000000,-33.000000,1199.000000,0.000000,0.000000,0.000000,0.000000,33.985291
224.000000,-34.000000,1174.000000,247.000000,-7.000000,1232.000000,0.000000,0.000000,0.000000,0.000000,67.985293
224.000000,-34.000000,1174.000000,244.000000,-28.000000,1209.000000,0.000000,0.000000,0.000000,0.000000,40.755368
224.000000,-34.000000,1174.000000,243.000000,-17.000000,1202.000000,0.000000,0.000000,0.000000,0.000000,37.868192
224.000000,-34.000000,1174.000000,255.000000,-13.000000,1198.000000,0.000000,0.000000,0.000000,0.000000,44.474712
224.000000,-34.000000,1174.000000,251.000000,-13.000000,1222.000000,0.000000,0.000000,0.000000,0.000000,58.940648
224.000000,-34.000000,1174.000000,245.000000,-11.000000,1210.000000,0.000000,0.000000,0.000000,0.000000,47.602521
224.000000,-34.000000,1174.000000,234.000000,-12.000000,1219.000000,0.000000,0.000000,0.000000,0.000000,51.078371
224.000000,-34.000000,1174.000000,248.000000,-14.000000,1218.000000,0.000000,0.000000,0.000000,0.000000,53.962950
224.000000,-34.000000,1174.000000,241.000000,-18.000000,1207.000000,0.000000,0.000000,0.000000,0.000000,40.422766
224.000000,-34.000000,1174.000000,247.000000,-23.000000,1220.000000,0.000000,0.000000,0.000000,0.000000,52.592775
224.000000,-34.000000,1174.000000,238.000000,-31.000000,1213.000000,0.000000,0.000000,0.000000,0.000000,41.545156
224.000000,-34.000000,1174.000000,249.000000,-26.000000,1218.000000,0.000000,0.000000,0.000000,0.000000,51.234754
224.000000,-34.000000,1174.000000,241.000000,-13.000000,1210.000000,0.000000,0.000000,0.000000,0.000000,45.011110
224.000000,-34.000000,1174.000000,249.000000,-16.000000,1196.000000,0.000000,0.000000,0.000000,0.000000,37.854986
224.000000,-34.000000,1174.000000,259.000000,-11.000000,1207.000000,0.000000,0.000000,0.000000,0.000000,53.319790
224.000000,-34.000000,1174.000000,251.000000,-6.000000,1190.000000,0.000000,0.000000,0.000000,0.000000,42.059482
224.000000,-34.000000,1174.000000,244.000000,-19.000000,1199.000000,0.000000,0.000000,0.000000,0.000000,35.355339
224.000000,-34.000000,1174.000000,249.000000,-29.000000,1220.000000,0.000000,0.000000,0.000000,0.000000,52.592775
224.000000,-34.000000,1174.000000,240.000000,-15.000000,1203.000000,0.000000,0.000000,0.000000,0.000000,38.183766
224.000000,-34.000000,1174.000000,245.000000,-29.000000,1230.000000,0.000000,0.000000,0.000000,0.000000,60.016664
224.000000,-34.000000,1174.000000,240.000000,-17.000000,1220.000000,0.000000,0.000000,0.000000,0.000000,51.584882
224.000000,-34.000000,1174.000000,236.000000,-14.000000,1213.000000,0.000000,0.000000,0.000000,0.000000,45.442271
224.000000,-34.000000,1174.000000,243.000000,-23.000000,1208.000000,0.000000,0.000000,0.000000,0.000000,40.472213
224.000000,-34.000000,1174.000000,243.000000,-11.000000,1207.000000,0.000000,0.000000,0.000000,0.000000,44.485953
224.000000,-34.000000,1174.000000,249.000000,-18.000000,1218.000000,0.000000,0.000000,0.000000,0.000000,53.075418
224.000000,-34.000000,1174.000000,246.000000,-13.000000,1203.000000,0.000000,0.000000,0.000000,0.000000,42.023803
224.000000,-34.000000,1174.000000,253.000000,-18.000000,1206.000000,0.000000,0.000000,0.000000,0.000000,46.054316
224.000000,-34.000000,1174.000000,268.000000,-12.000000,1202.000000,0.000000,0.000000,0.000000,0.000000,56.603887
224.000000,-34.000000,1174.000000,248.000000,-30.000000,1218.000000,0.000000,0.000000,0.000000,0.000000,50.279220
224.000000,-34.000000,1174.000000,242.000000,-25.000000,1206.000000,0.000000,0.000000,0.000000,0.000000,37.802116
224.000000,-34.000000,1174.000000,253.000000,-28.000000,1213.000000,0.000000,0.000000,0.000000,0.000000,48.969378
224.000000,-34.000000,1174.000000,235.000000,-26.000000,1204.000000,0.000000,0.000000,0.000000,0.000000,32.939338
224.000000,-34.000000,1174.000000,238.000000,-15.000000,1198.000000,0.000000,0.000000,0.000000,0.000000,33.660065
224.000000,-34.000000,1174.000000,239.000000,-17.000000,1226.000000,0.000000,0.000000,0.000000,0.000000,56.727418
224.000000,-34.000000,1174.000000,232.000000,-14.000000,1194.000000,0.000000,0.000000,0.000000,0.000000,29.393877
224.000000,-34.000000,1174.000000,240.000000,-2.000000,1213.000000,0.000000,0.000000,0.000000,0.000000,52.924474
224.000000,-34.000000,1174.000000,243.000000,-13.000000,1198.000000,0.000000,0.000000,0.000000,0.000000,37.121422
224.000000,-34.000000,1174.000000,248.000000,-13.000000,1201.000000,0.000000,0.000000,0.000000,0.000000,41.785165
224.000000,-34.000000,1174.000000,253.000000,-4.000000,1221.000000,0.000000,0.000000,0.000000,0.000000,62.849025
224.000000,-34.000000,1174.000000,248.000000,-10.000000,1213.000000,0.000000,0.000000,0.000000,0.000000,51.701064
224.000000,-34.000000,1174.000000,245.000000,-16.000000,1208.000000,0.000000,0.000000,0.000000,0.000000,43.829214
224.000000,-34.000000,1174.000000,247.000000,-26.000000,1200.000000,0.000000,0.000000,0.000000,0.000000,35.623026
224.000000,-34.000000,1174.000000,249.000000,-18.000000,1224.000000,0.000000,0.000000,0.000000,0.000000,58.146367
224.000000,-34.000000,1174.000000,253.000000,-15.000000,1200.000000,0.000000,0.000000,0.000000,0.000000,43.335897
224.000000,-34.000000,1174.000000,252.000000,-13.000000,1208.000000,0.000000,0.000000,0.000000,0.000000,48.795492
224.000000,-34.000000,1174.000000,239.000000,-27.000000,1206.000000,0.000000,0.000000,0.000000,0.000000,36.027767
224.000000,-34.000000,1174.000000,235.000000,-4.000000,1212.000000,0.000000,0.000000,0.000000,0.000000,49.648766
224.000000,-34.000000,1174.000000,247.000000,-14.000000,1213.000000,0.000000,0.000000,0.000000,0.000000,49.497475
224.000000,-34.000000,1174.000000,250.000000,-14.000000,1207.000000,0.000000,0.000000,0.000000,0.000000,46.529560
224.000000,-34.000000,1174.000000,250.000000,-8.000000,1203.000000,0.000000,0.000000,0.000000,0.000000,46.829478
224.000000,-34.000000,1174.000000,254.000000,-17.000000,1213.000000,0.000000,0.000000,0.000000,0.000000,52.057660
224.000000,-34.000000,1174.000000,253.000000,-18.000000,1209.000000,0.000000,0.000000,0.000000,0.000000,48.187135
224.000000,-34.000000,1174.000000,228.000000,-14.000000,1201.000000,0.000000,0.000000,0.000000,0.000000,33.837849
224.000000,-34.000000,1174.000000,238.000000,-23.000000,1216.000000,0.000000,0.000000,0.000000,0.000000,45.617979
224.000000,-34.000000,1174.000000,236.000000,-21.000000,1197.000000,0.000000,0.000000,0.000000,0.000000,29.017236
224.000000,-34.000000,1174.000000,240.000000,-44.000000,1189.000000,0.000000,0.000000,0.000000,0.000000,24.103942
224.000000,-34.000000,1174.000000,219.000000,-29.000000,1209.000000,0.000000,0.000000,0.000000,0.000000,35.707142
224.000000,-34.000000,1174.000000,246.000000,-24.000000,1156.000000,0.000000,0.000000,0.000000,0.000000,30.133038
224.000000,-34.000000,1174.000000,261.000000,33.000000,1250.000000,0.000000,0.000000,0.000000,0.000000,107.861022
224.000000,-34.000000,1174.000000,237.000000,6.000000,1261.000000,0.000000,0.000000,0.000000,0.000000,96.633328
224.000000,-34.000000,1174.000000,259.000000,55.000000,1270.000000,0.000000,0.000000,0.000000,0.000000,135.506457
224.000000,-34.000000,1174.000000,286.000000,-250.000000,1299.000000,0.000000,0.000000,0.000000,0.000000,257.147817
224.000000,-34.000000,1174.000000,302.000000,5.000000,1222.000000,0.000000,0.000000,0.000000,0.000000,99.543960
224.000000,-34.000000,1174.000000,240.000000,-32.000000,1249.000000,0.000000,0.000000,0.000000,0.000000,76.713754
224.000000,-34.000000,1174.000000,172.000000,-56.000000,1310.000000,0.000000,0.000000,0.000000,0.000000,147.254881
224.000000,-34.000000,1174.000000,312.000000,129.000000,1139.000000,0.000000,0.000000,0.000000,0.000000,188.515251
224.000000,-34.000000,1174.000000,232.000000,-66.000000,1116.000000,0.000000,0.000000,0.000000,0.000000,66.723309
224.000000,-34.000000,1174.000000,303.000000,-51.000000,1208.000000,0.000000,0.000000,0.000000,0.000000,87.669835
224.000000,-34.000000,1174.000000,258.000000,32.000000,1349.000000,0.000000,0.000000,0.000000,0.000000,190.097343
224.000000,-34.000000,1174.000000,344.000000,-85.000000,1304.000000,0.000000,0.000000,0.000000,0.000000,184.122242
224.000000,-34.000000,1174.000000,281.000000,-77.000000,1124.000000,0.000000,0.000000,0.000000,0.000000,87.166507
224.000000,-34.000000,1174.000000,211.000000,-85.000000,1157.000000,0.000000,0.000000,0.000000,0.000000,55.308227
224.000000,-34.000000,1174.000000,315.000000,5.000000,1302.000000,0.000000,0.000000,0.000000,0.000000,161.820889
224.000000,-34.000000,1174.000000,303.000000,6.000000,1069.000000,0.000000,0.000000,0.000000,0.000000,137.353558
224.000000,-34.000000,1174.000000,249.000000,-63.000000,1256.000000,0.000000,0.000000,0.000000,0.000000,90.498619
224.000000,-34.000000,1174.000000,266.000000,-83.000000,1139.000000,0.000000,0.000000,0.000000,0.000000,73.416619
224.000000,-34.000000,1174.000000,302.000000,-75.000000,1103.000000,0.000000,0.000000,0.000000,0.000000,113.163598
224.000000,-34.000000,1174.000000,365.000000,-75.000000,1066.000000,0.000000,0.000000,0.000000,0.000000,182.280004
224.000000,-34.000000,1174.000000,1088.000000,-186.000000,1074.000000,0.000000,0.000000,0.000000,0.000000,882.949602
224.000000,-34.000000,1174.000000,471.000000,-33.000000,1058.000000,0.000000,0.000000,0.000000,0.000000,272.884591
224.000000,-34.000000,1174.000000,247.000000,-2.000000,1154.000000,0.000000,0.000000,0.000000,0.000000,44.192760
224.000000,-34.000000,1174.000000,297.000000,-152.000000,1297.000000,0.000000,0.000000,0.000000,0.000000,185.423839
224.000000,-34.000000,1174.000000,538.000000,-150.000000,1340.000000,0.000000,0.000000,0.000000,0.000000,373.641539
224.000000,-34.000000,1174.000000,628.000000,-63.000000,1069.000000,0.000000,0.000000,0.000000,0.000000,418.428011
224.000000,-34.000000,1174.000000,617.000000,-50.000000,1074.000000,0.000000,0.000000,0.000000,0.000000,405.838638
224.000000,-34.000000,1174.000000,535.000000,-65.000000,1053.000000,0.000000,0.000000,0.000000,0.000000,335.146237
224.000000,-34.000000,1174.000000,460.000000,-108.000000,1227.000000,0.000000,0.000000,0.000000,0.000000,252.944658
224.000000,-34.000000,1174.000000,401.000000,-111.000000,1177.000000,0.000000,0.000000,0.000000,0.000000,193.046626
224.000000,-34.000000,1174.000000,340.000000,-66.000000,1145.000000,0.000000,0.000000,0.000000,0.000000,123.778027
224.000000,-34.000000,1174.000000,462.000000,9.000000,974.000000,0.000000,0.000000,0.000000,0.000000,313.835944
224.000000,-34.000000,1174.000000,391.000000,42.000000,1019.000000,0.000000,0.000000,0.000000,0.000000,240.187427
224.000000,-34.000000,1174.000000,273.000000,31.000000,999.000000,0.000000,0.000000,0.000000,0.000000,193.005181
224.000000,-34.000000,1174.000000,601.000000,-35.000000,1079.000000,0.000000,0.000000,0.000000,0.000000,388.786574
224.000000,-34.000000,1174.000000,413.000000,-124.000000,1121.000000,0.000000,0.000000,0.000000,0.000000,215.939806
224.000000,-34.000000,1174.000000,390.000000,-105.000000,1150.000000,0.000000,0.000000,0.000000,0.000000,182.134566
224.000000,-34.000000,1174.000000,439.000000,-140.000000,1144.000000,0.000000,0.000000,0.000000,0.000000,241.580214
224.000000,-34.000000,1174.000000,464.000000,-162.000000,1125.000000,0.000000,0.000000,0.000000,0.000000,276.378364
224.000000,-34.000000,1174.000000,375.000000,-193.000000,1222.000000,0.000000,0.000000,0.000000,0.000000,224.468261
224.000000,-34.000000,1174.000000,443.000000,-246.000000,1344.000000,0.000000,0.000000,0.000000,0.000000,349.005731
224.000000,-34.000000,1174.000000,453.000000,-361.000000,1294.000000,0.000000,0.000000,0.000000,0.000000,416.857290
224.000000,-34.000000,1174.000000,320.000000,-334.000000,1273.000000,0.000000,0.000000,0.000000,0.000000,330.177225
224.000000,-34.000000,1174.000000,149.000000,-349.000000,1251.000000,0.000000,0.000000,0.000000,0.000000,332.834794
224.000000,-34.000000,1174.000000,3.000000,-315.000000,1173.000000,0.000000,0.000000,0.000000,0.000000,357.495455
224.000000,-34.000000,1174.000000,-140.000000,-212.000000,908.000000,0.000000,0.000000,0.000000,0.000000,484.701970
224.000000,-34.000000,1174.000000,-288.000000,19.000000,566.000000,0.000000,0.000000,0.000000,0.000000,796.628521
224.000000,-34.000000,1174.000000,-598.000000,90.000000,794.000000,0.000000,0.000000,0.000000,0.000000,914.035010
224.000000,-34.000000,1174.000000,-303.000000,-195.000000,1254.000000,0.000000,0.000000,0.000000,0.000000,556.821336
224.000000,-34.000000,1174.000000,548.000000,-578.000000,1594.000000,0.000000,0.000000,0.000000,0.000000,759.810503
224.000000,-34.000000,1174.000000,1261.000000,-954.000000,1908.000000,0.000000,0.000000,0.000000,0.000000,1568.606069
224.000000,-34.000000,1174.000000,1338.000000,-1026.000000,1818.000000,0.000000,0.000000,0.000000,0.000000,1624.744903
224.000000,-34.000000,1174.000000,682.000000,-751.000000,1645.000000,0.000000,0.000000,0.000000,0.000000,972.467994
224.000000,-34.000000,1174.000000,-85.000000,-419.000000,1351.000000,0.000000,0.000000,0.000000,0.000000,524.437794
224.000000,-34.000000,1174.000000,-423.000000,-149.000000,611.000000,0.000000,0.000000,0.000000,0.000000,865.334040
224.000000,-34.000000,1174.000000,-493.000000,68.000000,268.000000,0.000000,0.000000,0.000000,0.000000,1159.883184
224.000000,-34.000000,1174.000000,-556.000000,280.000000,97.000000,0.000000,0.000000,0.000000,0.000000,1366.354639
224.000000,-34.000000,1174.000000,-621.000000,164.000000,346.000000,0.000000,0.000000,0.000000,0.000000,1199.505315
224.000000,-34.000000,1174.000000,-404.000000,-137.000000,925.000000,0.000000,0.000000,0.000000,0.000000,683.369593
224.000000,-34.000000,1174.000000,-139.000000,-518.000000,1871.000000,0.000000,0.000000,0.000000,0.000000,922.948536
224.000000,-34.000000,1174.000000,533.000000,-1030.000000,2056.000000,0.000000,0.000000,0.000000,0.000000,1365.804159
224.000000,-34.000000,1174.000000,1287.000000,-1108.000000,1889.000000,0.000000,0.000000,0.000000,0.000000,1671.726652
224.000000,-34.000000,1174.000000,669.000000,-892.000000,1755.000000,0.000000,0.000000,0.000000,0.000000,1127.718937
224.000000,-34.000000,1174.000000,310.000000,-618.000000,1464.000000,0.000000,0.000000,0.000000,0.000000,657.686856
224.000000,-34.000000,1174.000000,58.000000,-365.000000,1029.000000,0.000000,0.000000,0.000000,0.000000,397.670718
224.000000,-34.000000,1174.000000,-402.000000,-4.000000,569.000000,0.000000,0.000000,0.000000,0.000000,871.091844
224.000000,-34.000000,1174.000000,-931.000000,505.000000,127.000000,0.000000,0.000000,0.000000,0.000000,1649.471127
224.000000,-34.000000,1174.000000,-1355.000000,727.000000,207.000000,0.000000,0.000000,0.000000,0.000000,2001.861883
224.000000,-34.000000,1174.000000,-1010.000000,207.000000,666.000000,0.000000,0.000000,0.000000,0.000000,1356.060839
224.000000,-34.000000,1174.000000,-744.000000,-542.000000,1534.000000,0.000000,0.000000,0.000000,0.000000,1150.950911
224.000000,-34.000000,1174.000000,617.000000,-717.000000,1738.000000,0.000000,0.000000,0.000000,0.000000,969.037667
224.000000,-34.000000,1174.000000,1302.000000,-1386.000000,2023.000000,0.000000,0.000000,0.000000,0.000000,1926.340832
224.000000,-34.000000,1174.000000,1344.000000,-1245.000000,1766.000000,0.000000,0.000000,0.000000,0.000000,1752.536733
224.000000,-34.000000,1174.000000,336.000000,-761.000000,1601.000000,0.000000,0.000000,0.000000,0.000000,850.530423
224.000000,-34.000000,1174.000000,-46.000000,-432.000000,1139.000000,0.000000,0.000000,0.000000,0.000000,482.212609
224.000000,-34.000000,1174.000000,-407.000000,-102.000000,601.000000,0.000000,0.000000,0.000000,0.000000,855.052045
224.000000,-34.000000,1174.000000,-848.000000,278.000000,357.000000,0.000000,0.000000,0.000000,0.000000,1383.480032
224.000000,-34.000000,1174.000000,-1234.000000,631.000000,143.000000,0.000000,0.000000,0.000000,0.000000,1905.505182
224.000000,-34.000000,1174.000000,-1181.000000,604.000000,261.000000,0.000000,0.000000,0.000000,0.000000,1792.941159
224.000000,-34.000000,1174.000000,-1236.000000,48.000000,1108.000000,0.000000,0.000000,0.000000,0.000000,1463.789602
224.000000,-34.000000,1174.000000,-458.000000,-884.000000,1823.000000,0.000000,0.000000,0.000000,0.000000,1268.394655
224.000000,-34.000000,1174.000000,1673.000000,-1486.000000,1915.000000,0.000000,0.000000,0.000000,0.000000,2181.051581
224.000000,-34.000000,1174.000000,1740.000000,-1630.000000,1829.000000,0.000000,0.000000,0.000000,0.000000,2296.627310
224.000000,-34.000000,1174.000000,827.000000,-1218.000000,1800.000000,0.000000,0.000000,0.000000,0.000000,1468.788957
224.000000,-34.000000,1174.000000,278.000000,-797.000000,1471.000000,0.000000,0.000000,0.000000,0.000000,820.544941
224.000000,-34.000000,1174.000000,-310.000000,-455.000000,1287.000000,0.000000,0.000000,0.000000,0.000000,689.322856
224.000000,-34.000000,1174.000000,-330.000000,-167.000000,676.000000,0.000000,0.000000,0.000000,0.000000,756.709323
224.000000,-34.000000,1174.000000,-913.000000,437.000000,430.000000,0.000000,0.000000,0.000000,0.000000,1438.105003
224.000000,-34.000000,1174.000000,-1750.000000,799.000000,121.000000,0.000000,0.000000,0.000000,0.000000,2387.336172
224.000000,-34.000000,1174.000000,-1387.000000,530.000000,-292.000000,0.000000,0.000000,0.000000,0.000000,2250.016222
224.000000,-34.000000,1174.000000,-906.000000,164.000000,1265.000000,0.000000,0.000000,0.000000,0.000000,1150.819273
224.000000,-34.000000,1174.000000,-346.000000,-960.000000,1618.000000,0.000000,0.000000,0.000000,0.000000,1174.526287
224.000000,-34.000000,1174.000000,1749.000000,-1684.000000,1837.000000,0.000000,0.000000,0.000000,0.000000,2342.582763
224.000000,-34.000000,1174.000000,1540.000000,-1617.000000,1726.000000,0.000000,0.000000,0.000000,0.000000,2131.302184
224.000000,-34.000000,1174.000000,612.000000,-1020.000000,1521.000000,0.000000,0.000000,0.000000,0.000000,1114.965919
224.000000,-34.000000,1174.000000,-340.000000,-626.000000,1421.000000,0.000000,0.000000,0.000000,0.000000,854.148114
224.000000,-34.000000,1174.000000,-212.000000,-525.000000,859.000000,0.000000,0.000000,0.000000,0.000000,728.287031
224.000000,-34.000000,1174.000000,-395.000000,-237.000000,711.000000,0.000000,0.000000,0.000000,0.000000,799.211486
224.000000,-34.000000,1174.000000,-1564.000000,597.000000,213.000000,0.000000,0.000000,0.000000,0.000000,2125.706000
224.000000,-34.000000,1174.000000,-1865.000000,1154.000000,625.000000,0.000000,0.000000,0.000000,0.000000,2465.089451
224.000000,-34.000000,1174.000000,-1674.000000,60.000000,1063.000000,0.000000,0.000000,0.000000,0.000000,1903.565339
224.000000,-34.000000,1174.000000,257.000000,-1034.000000,1877.000000,0.000000,0.000000,0.000000,0.000000,1222.823781
224.000000,-34.000000,1174.000000,1033.000000,-1815.000000,1865.000000,0.000000,0.000000,0.000000,0.000000,2074.589839
224.000000,-34.000000,1174.000000,1413.000000,-1654.000000,1780.000000,0.000000,0.000000,0.000000,0.000000,2098.894233
224.000000,-34.000000,1174.000000,596.000000,-1024.000000,1516.000000,0.000000,0.000000,0.000000,0.000000,1111.507085
224.000000,-34.000000,1174.000000,-234.000000,-539.000000,1240.000000,0.000000,0.000000,0.000000,0.000000,684.941603
224.000000,-34.000000,1174.000000,-422.000000,-294.000000,1011.000000,0.000000,0.000000,0.000000,0.000000,715.181795
224.000000,-34.000000,1174.000000,-810.000000,24.000000,590.000000,0.000000,0.000000,0.000000,0.000000,1188.939023
224.000000,-34.000000,1174.000000,-1774.000000,568.000000,373.000000,0.000000,0.000000,0.000000,0.000000,2235.175385
224.000000,-34.000000,1174.000000,-1737.000000,934.000000,684.000000,0.000000,0.000000,0.000000,0.000000,2241.125833
224.000000,-34.000000,1174.000000,-1182.000000,180.000000,306.000000,0.000000,0.000000,0.000000,0.000000,1666.150053
224.000000,-34.000000,1174.000000,-144.000000,-689.000000,2018.000000,0.000000,0.000000,0.000000,0.000000,1129.949114
224.000000,-34.000000,1174.000000,810.000000,-1760.000000,1667.000000,0.000000,0.000000,0.000000,0.000000,1888.258722
224.000000,-34.000000,1174.000000,1399.000000,-1668.000000,1564.000000,0.000000,0.000000,0.000000,0.000000,2050.044146
224.000000,-34.000000,1174.000000,472.000000,-1006.000000,1595.000000,0.000000,0.000000,0.000000,0.000000,1087.901190
224.000000,-34.000000,1174.000000,202.000000,-787.000000,794.000000,0.000000,0.000000,0.000000,0.000000,843.737518
224.000000,-34.000000,1174.000000,-581.000000,-301.000000,1403.000000,0.000000,0.000000,0.000000,0.000000,878.495874
224.000000,-34.000000,1174.000000,-602.000000,-155.000000,762.000000,0.000000,0.000000,0.000000,0.000000,930.946293
224.000000,-34.000000,1174.000000,-1510.000000,493.000000,317.000000,0.000000,0.000000,0.000000,0.000000,2004.727912
224.000000,-34.000000,1174.000000,-1862.000000,899.000000,526.000000,0.000000,0.000000,0.000000,0.000000,2375.245040
224.000000,-34.000000,1174.000000,-1298.000000,102.000000,288.000000,0.000000,0.000000,0.000000,0.000000,1766.345380
224.000000,-34.000000,1174.000000,157.000000,-306.000000,1810.000000,0.000000,0.000000,0.000000,0.000000,694.959711
224.000000,-34.000000,1174.000000,970.000000,-1215.000000,1727.000000,0.000000,0.000000,0.000000,0.000000,1502.360143
224.000000,-34.000000,1174.000000,1447.000000,-1692.000000,1643.000000,0.000000,0.000000,0.000000,0.000000,2112.972787
224.000000,-34.000000,1174.000000,751.000000,-1099.000000,1747.000000,0.000000,0.000000,0.000000,0.000000,1319.197862
224.000000,-34.000000,1174.000000,-112.000000,-840.000000,1485.000000,0.000000,0.000000,0.000000,0.000000,926.959007
224.000000,-34.000000,1174.000000,-213.000000,-444.000000,1056.000000,0.000000,0.000000,0.000000,0.000000,610.731529
224.000000,-34.000000,1174.000000,-657.000000,-58.000000,856.000000,0.000000,0.000000,0.000000,0.000000,936.942367
224.000000,-34.000000,1174.000000,-1545.000000,443.000000,514.000000,0.000000,0.000000,0.000000,0.000000,1947.431642
224.000000,-34.000000,1174.000000,-1830.000000,690.000000,455.000000,0.000000,0.000000,0.000000,0.000000,2293.480543
224.000000,-34.000000,1174.000000,-1426.000000,484.000000,472.000000,0.000000,0.000000,0.000000,0.000000,1866.447963
224.000000,-34.000000,1174.000000,-456.000000,-357.000000,731.000000,0.000000,0.000000,0.000000,0.000000,873.486119
224.000000,-34.000000,1174.000000,758.000000,-881.000000,1928.000000,0.000000,0.000000,0.000000,0.000000,1253.427700
224.000000,-34.000000,1174.000000,1479.000000,-1661.000000,1737.000000,0.000000,0.000000,0.000000,0.000000,2130.521767
224.000000,-34.000000,1174.000000,1129.000000,-1082.000000,1668.000000,0.000000,0.000000,0.000000,0.000000,1470.158155
224.000000,-34.000000,1174.000000,-394.000000,-767.000000,1682.000000,0.000000,0.000000,0.000000,0.000000,1085.023963
224.000000,-34.000000,1174.000000,-261.000000,-392.000000,1046.000000,0.000000,0.000000,0.000000,0.000000,616.257251
224.000000,-34.000000,1174.000000,-779.000000,-63.000000,622.000000,0.000000,0.000000,0.000000,0.000000,1145.230981
224.000000,-34.000000,1174.000000,-1553.000000,607.000000,41.000000,0.000000,0.000000,0.000000,0.000000,2202.793454
224.000000,-34.000000,1174.000000,-1810.000000,1283.000000,79.000000,0.000000,0.000000,0.000000,0.000000,2659.073147
224.000000,-34.000000,1174.000000,-1153.000000,546.000000,-168.000000,0.000000,0.000000,0.000000,0.000000,2008.355795
224.000000,-34.000000,1174.000000,-292.000000,-588.000000,399.000000,0.000000,0.000000,0.000000,0.000000,1083.419125
224.000000,-34.000000,1174.000000,1357.000000,-1828.000000,1694.000000,0.000000,0.000000,0.000000,0.000000,2184.610949
224.000000,-34.000000,1174.000000,1634.000000,-1687.000000,2074.000000,0.000000,0.000000,0.000000,0.000000,2351.703425
224.000000,-34.000000,1174.000000,483.000000,-874.000000,2053.000000,0.000000,0.000000,0.000000,0.000000,1243.109810
224.000000,-34.000000,1174.000000,-219.000000,-718.000000,1269.000000,0.000000,0.000000,0.000000,0.000000,820.445001
224.000000,-34.000000,1174.000000,-246.000000,-320.000000,745.000000,0.000000,0.000000,0.000000,0.000000,697.665393
224.000000,-34.000000,1174.000000,-731.000000,206.000000,647.000000,0.000000,0.000000,0.000000,0.000000,1116.850035
224.000000,-34.000000,1174.000000,-1281.000000,289.000000,464.000000,0.000000,0.000000,0.000000,0.000000,1695.126544
224.000000,-34.000000,1174.000000,-865.000000,-32.000000,487.000000,0.000000,0.000000,0.000000,0.000000,1287.592327
224.000000,-34.000000,1174.000000,-453.000000,-463.000000,706.000000,0.000000,0.000000,0.000000,0.000000,928.113140
224.000000,-34.000000,1174.000000,-195.000000,-731.000000,1192.000000,0.000000,0.000000,0.000000,0.000000,813.445757
224.000000,-34.000000,1174.000000,-33.000000,-823.000000,1332.000000,0.000000,0.000000,0.000000,0.000000,844.709417
224.000000,-34.000000,1174.000000,-50.000000,-705.000000,1219.000000,0.000000,0.000000,0.000000,0.000000,726.183172
224.000000,-34.000000,1174.000000,-149.000000,-628.000000,1144.000000,0.000000,0.000000,0.000000,0.000000,702.043446
224.000000,-34.000000,1174.000000,-47.000000,-583.000000,1007.000000,0.000000,0.000000,0.000000,0.000000,634.610904
224.000000,-34.000000,1174.000000,-108.000000,-559.000000,905.000000,0.000000,0.000000,0.000000,0.000000,676.912107
224.000000,-34.000000,1174.000000,-45.000000,-398.000000,687.000000,0.000000,0.000000,0.000000,0.000000,664.850359
224.000000,-34.000000,1174.000000,-261.000000,-504.000000,718.000000,0.000000,0.000000,0.000000,0.000000,814.899380
224.000000,-34.000000,1174.000000,-154.000000,-502.000000,1010.000000,0.000000,0.000000,0.000000,0.000000,623.541498
224.000000,-34.000000,1174.000000,-325.000000,-742.000000,1423.000000,0.000000,0.000000,0.000000,0.000000,929.874185
224.000000,-34.000000,1174.000000,60.000000,-1058.000000,1445.000000,0.000000,0.000000,0.000000,0.000000,1071.873593
224.000000,-34.000000,1174.000000,1232.000000,-894.000000,2347.000000,0.000000,0.000000,0.000000,0.000000,1769.630752
224.000000,-34.000000,1174.000000,675.000000,-780.000000,1912.000000,0.000000,0.000000,0.000000,0.000000,1142.173805
224.000000,-34.000000,1174.000000,314.000000,-1205.000000,1610.000000,0.000000,0.000000,0.000000,0.000000,1252.771727
224.000000,-34.000000,1174.000000,645.000000,-1100.000000,1448.000000,0.000000,0.000000,0.000000,0.000000,1178.419705
224.000000,-34.000000,1174.000000,609.000000,-668.000000,1194.000000,0.000000,0.000000,0.000000,0.000000,742.011455
224.000000,-34.000000,1174.000000,219.000000,-470.000000,804.000000,0.000000,0.000000,0.000000,0.000000,571.857500
224.000000,-34.000000,1174.000000,-2.000000,-443.000000,741.000000,0.000000,0.000000,0.000000,0.000000,637.060437
224.000000,-34.000000,1174.000000,-161.000000,-429.000000,840.000000,0.000000,0.000000,0.000000,0.000000,644.830210
224.000000,-34.000000,1174.000000,-223.000000,-178.000000,865.000000,0.000000,0.000000,0.000000,0.000000,562.161898
224.000000,-34.000000,1174.000000,-465.000000,-42.000000,759.000000,0.000000,0.000000,0.000000,0.000000,804.369318
224.000000,-34.000000,1174.000000,-731.000000,123.000000,611.000000,0.000000,0.000000,0.000000,0.000000,1119.662003
224.000000,-34.000000,1174.000000,-709.000000,319.000000,251.000000,0.000000,0.000000,0.000000,0.000000,1359.053715
224.000000,-34.000000,1174.000000,-557.000000,119.000000,336.000000,0.000000,0.000000,0.000000,0.000000,1155.687674
224.000000,-34.000000,1174.000000,-1000.000000,582.000000,643.000000,0.000000,0.000000,0.000000,0.000000,1469.555375
224.000000,-34.000000,1174.000000,-1771.000000,748.000000,1392.000000,0.000000,0.000000,0.000000,0.000000,2153.850738
224.000000,-34.000000,1174.000000,-1435.000000,813.000000,727.000000,0.000000,0.000000,0.000000,0.000000,1915.593642
224.000000,-34.000000,1174.000000,-1250.000000,381.000000,953.000000,0.000000,0.000000,0.000000,0.000000,1547.172259
224.000000,-34.000000,1174.000000,-1494.000000,160.000000,1706.000000,0.000000,0.000000,0.000000,0.000000,1808.917909
224.000000,-34.000000,1174.000000,-1152.000000,180.000000,1775.000000,0.000000,0.000000,0.000000,0.000000,1516.698058
224.000000,-34.000000,1174.000000,-683.000000,-17.000000,1788.000000,0.000000,0.000000,0.000000,0.000000,1095.414990
224.000000,-34.000000,1174.000000,-359.000000,-120.000000,1434.000000,0.000000,0.000000,0.000000,0.000000,644.115673
224.000000,-34.000000,1174.000000,167.000000,-288.000000,135.000000,0.000000,0.000000,0.000000,0.000000,1071.114373
224.000000,-34.000000,1174.000000,538.000000,-989.000000,916.000000,0.000000,0.000000,0.000000,0.000000,1037.875233
224.000000,-34.000000,1174.000000,214.000000,-489.000000,1197.000000,0.000000,0.000000,0.000000,0.000000,455.690685
224.000000,-34.000000,1174.000000,-134.000000,-633.000000,1325.000000,0.000000,0.000000,0.000000,0.000000,713.978991
224.000000,-34.000000,1174.000000,-99.000000,-605.000000,1549.000000,0.000000,0.000000,0.000000,0.000000,755.642111
224.000000,-34.000000,1174.000000,-173.000000,-595.000000,1769.000000,0.000000,0.000000,0.000000,0.000000,909.040703
224.000000,-34.000000,1174.000000,186.000000,-707.000000,1892.000000,0.000000,0.000000,0.000000,0.000000,984.833488
224.000000,-34.000000,1174.000000,233.000000,-853.000000,1963.000000,0.000000,0.000000,0.000000,0.000000,1137.261184
224.000000,-34.000000,1174.000000,901.000000,-615.000000,1236.000000,0.000000,0.000000,0.000000,0.000000,894.278480
224.000000,-34.000000,1174.000000,683.000000,-647.000000,1097.000000,0.000000,0.000000,0.000000,0.000000,769.661614
224.000000,-34.000000,1174.000000,160.000000,-370.000000,1151.000000,0.000000,0.000000,0.000000,0.000000,342.813360
224.000000,-34.000000,1174.000000,-136.000000,-31.000000,1458.000000,0.000000,0.000000,0.000000,0.000000,458.546617
224.000000,-34.000000,1174.000000,-295.000000,38.000000,1110.000000,0.000000,0.000000,0.000000,0.000000,527.864566
224.000000,-34.000000,1174.000000,-633.000000,76.000000,757.000000,0.000000,0.000000,0.000000,0.000000,959.394601
224.000000,-34.000000,1174.000000,-774.000000,12.000000,610.000000,0.000000,0.000000,0.000000,0.000000,1147.264573
224.000000,-34.000000,1174.000000,-378.000000,562.000000,412.000000,0.000000,0.000000,0.000000,0.000000,1139.413884
224.000000,-34.000000,1174.000000,-1225.000000,-65.000000,2648.000000,0.000000,0.000000,0.000000,0.000000,2067.181173
224.000000,-34.000000,1174.000000,-232.000000,107.000000,139.000000,0.000000,0.000000,0.000000,0.000000,1139.755237
224.000000,-34.000000,1174.000000,-1190.000000,58.000000,1188.000000,0.000000,0.000000,0.000000,0.000000,1417.058926
224.000000,-34.000000,1174.000000,-724.000000,-34.000000,787.000000,0.000000,0.000000,0.000000,0.000000,1023.949706
224.000000,-34.000000,1174.000000,-558.000000,-212.000000,931.000000,0.000000,0.000000,0.000000,0.000000,838.007757
224.000000,-34.000000,1174.000000,-423.000000,-268.000000,894.000000,0.000000,0.000000,0.000000,0.000000,742.808858
224.000000,-34.000000,1174.000000,-362.000000,-198.000000,1073.000000,0.000000,0.000000,0.000000,0.000000,616.841146
224.000000,-34.000000,1174.000000,-549.000000,-172.000000,1291.000000,0.000000,0.000000,0.000000,0.000000,793.890421
224.000000,-34.000000,1174.000000,-551.000000,-212.000000,1332.000000,0.000000,0.000000,0.000000,0.000000,810.723751
224.000000,-34.000000,1174.000000,-420.000000,-242.000000,1310.000000,0.000000,0.000000,0.000000,0.000000,690.286897
224.000000,-34.000000,1174.000000,-339.000000,-243.000000,1293.000000,0.000000,0.000000,0.000000,0.000000,612.218098
224.000000,-34.000000,1174.000000,-367.000000,-195.000000,1214.000000,0.000000,0.000000,0.000000,0.000000,613.841999
224.000000,-34.000000,1174.000000,-341.000000,-171.000000,1220.000000,0.000000,0.000000,0.000000,0.000000,583.189506
224.000000,-34.000000,1174.000000,-380.000000,-169.000000,1311.000000,0.000000,0.000000,0.000000,0.000000,633.884848
224.000000,-34.000000,1174.000000,-415.000000,-155.000000,1386.000000,0.000000,0.000000,0.000000,0.000000,684.036549
224.000000,-34.000000,1174.000000,-422.000000,-205.000000,1310.000000,0.000000,0.000000,0.000000,0.000000,681.947945
224.000000,-34.000000,1174.000000,-184.000000,-211.000000,1181.000000,0.000000,0.000000,0.000000,0.000000,444.794334
224.000000,-34.000000,1174.000000,-107.000000,-204.000000,1104.000000,0.000000,0.000000,0.000000,0.000000,378.630427
224.000000,-34.000000,1174.000000,-52.000000,-196.000000,1037.000000,0.000000,0.000000,0.000000,0.000000,348.122105
224.000000,-34.000000,1174.000000,-16.000000,-163.000000,1029.000000,0.000000,0.000000,0.000000,0.000000,308.651907
224.000000,-34.000000,1174.000000,-121.000000,-103.000000,1049.000000,0.000000,0.000000,0.000000,0.000000,373.377825
224.000000,-34.000000,1174.000000,-109.000000,-95.000000,1073.000000,0.000000,0.000000,0.000000,0.000000,353.286003
224.000000,-34.000000,1174.000000,-145.000000,-46.000000,1133.000000,0.000000,0.000000,0.000000,0.000000,371.464669
224.000000,-34.000000,1174.000000,-128.000000,24.000000,1050.000000,0.000000,0.000000,0.000000,0.000000,377.682406
224.000000,-34.000000,1174.000000,-149.000000,64.000000,1032.000000,0.000000,0.000000,0.000000,0.000000,410.970802
224.000000,-34.000000,1174.000000,-108.000000,36.000000,1186.000000,0.000000,0.000000,0.000000,0.000000,339.511414
224.000000,-34.000000,1174.000000,76.000000,-103.000000,1387.000000,0.000000,0.000000,0.000000,0.000000,268.391505
224.000000,-34.000000,1174.000000,284.000000,-243.000000,1608.000000,0.000000,0.000000,0.000000,0.000000,485.424556
224.000000,-34.000000,1174.000000,7.000000,-201.000000,1833.000000,0.000000,0.000000,0.000000,0.000000,713.623850
224.000000,-34.000000,1174.000000,-129.000000,-113.000000,1787.000000,0.000000,0.000000,0.000000,0.000000,711.771733
224.000000,-34.000000,1174.000000,287.000000,-87.000000,1679.000000,0.000000,0.000000,0.000000,0.000000,511.666884
224.000000,-34.000000,1174.000000,478.000000,-339.000000,1718.000000,0.000000,0.000000,0.000000,0.000000,673.407009
224.000000,-34.000000,1174.000000,766.000000,-506.000000,1778.000000,0.000000,0.000000,0.000000,0.000000,938.809885
224.000000,-34.000000,1174.000000,901.000000,-535.000000,1525.000000,0.000000,0.000000,0.000000,0.000000,912.431367
224.000000,-34.000000,1174.000000,825.000000,-612.000000,1340.000000,0.000000,0.000000,0.000000,0.000000,850.200565
224.000000,-34.000000,1174.000000,882.000000,-416.000000,799.000000,0.000000,0.000000,0.000000,0.000000,848.241121
224.000000,-34.000000,1174.000000,703.000000,-23.000000,693.000000,0.000000,0.000000,0.000000,0.000000,678.913102
224.000000,-34.000000,1174.000000,151.000000,199.000000,676.000000,0.000000,0.000000,0.000000,0.000000,554.636818
224.000000,-34.000000,1174.000000,22.000000,371.000000,548.000000,0.000000,0.000000,0.000000,0.000000,772.466828
224.000000,-34.000000,1174.000000,-164.000000,587.000000,582.000000,0.000000,0.000000,0.000000,0.000000,941.620412
224.000000,-34.000000,1174.000000,-690.000000,774.000000,633.000000,0.000000,0.000000,0.000000,0.000000,1334.519014
224.000000,-34.000000,1174.000000,-714.000000,694.000000,906.000000,0.000000,0.000000,0.000000,0.000000,1217.231285
224.000000,-34.000000,1174.000000,-992.000000,572.000000,1345.000000,0.000000,0.000000,0.000000,0.000000,1369.354958
224.000000,-34.000000,1174.000000,-677.000000,325.000000,1758.000000,0.000000,0.000000,0.000000,0.000000,1132.138684
224.000000,-34.000000,1174.000000,-818.000000,323.000000,1962.000000,0.000000,0.000000,0.000000,0.000000,1354.310526
224.000000,-34.000000,1174.000000,-312.000000,281.000000,1540.000000,0.000000,0.000000,0.000000,0.000000,721.440919
224.000000,-34.000000,1174.000000,-79.000000,96.000000,1726.000000,0.000000,0.000000,0.000000,0.000000,642.972006
224.000000,-34.000000,1174.000000,74.000000,-206.000000,1872.000000,0.000000,0.000000,0.000000,0.000000,734.362308
224.000000,-34.000000,1174.000000,444.000000,-273.000000,1722.000000,0.000000,0.000000,0.000000,0.000000,637.043955
224.000000,-34.000000,1174.000000,448.000000,-379.000000,1769.000000,0.000000,0.000000,0.000000,0.000000,723.343625
224.000000,-34.000000,1174.000000,885.000000,-557.000000,1692.000000,0.000000,0.000000,0.000000,0.000000,989.330076
224.000000,-34.000000,1174.000000,1092.000000,-715.000000,1533.000000,0.000000,0.000000,0.000000,0.000000,1160.200845
224.000000,-34.000000,1174.000000,1174.000000,-713.000000,1380.000000,0.000000,0.000000,0.000000,0.000000,1185.739010
224.000000,-34.000000,1174.000000,896.000000,-508.000000,1084.000000,0.000000,0.000000,0.000000,0.000000,827.260539
224.000000,-34.000000,1174.000000,752.000000,31.000000,723.000000,0.000000,0.000000,0.000000,0.000000,697.431000
224.000000,-34.000000,1174.000000,200.000000,396.000000,740.000000,0.000000,0.000000,0.000000,0.000000,611.418024
224.000000,-34.000000,1174.000000,-196.000000,503.000000,637.000000,0.000000,0.000000,0.000000,0.000000,867.835238
224.000000,-34.000000,1174.000000,-263.000000,654.000000,374.000000,0.000000,0.000000,0.000000,0.000000,1162.115743
224.000000,-34.000000,1174.000000,-632.000000,659.000000,341.000000,0.000000,0.000000,0.000000,0.000000,1380.896086
224.000000,-34.000000,1174.000000,-670.000000,679.000000,581.000000,0.000000,0.000000,0.000000,0.000000,1288.120336
224.000000,-34.000000,1174.000000,-682.000000,683.000000,881.000000,0.000000,0.000000,0.000000,0.000000,1191.962248
224.000000,-34.000000,1174.000000,-870.000000,499.000000,1602.000000,0.000000,0.000000,0.000000,0.000000,1290.003488
224.000000,-34.000000,1174.000000,-920.000000,218.000000,1942.000000,0.000000,0.000000,0.000000,0.000000,1400.736949
224.000000,-34.000000,1174.000000,-406.000000,153.000000,1727.000000,0.000000,0.000000,0.000000,0.000000,858.881831
224.000000,-34.000000,1174.000000,-497.000000,151.000000,1506.000000,0.000000,0.000000,0.000000,0.000000,815.039876
224.000000,-34.000000,1174.000000,-430.000000,76.000000,1918.000000,0.000000,0.000000,0.000000,0.000000,996.670457
224.000000,-34.000000,1174.000000,120.000000,-77.000000,1899.000000,0.000000,0.000000,0.000000,0.000000,733.682493
224.000000,-34.000000,1174.000000,514.000000,-432.000000,1937.000000,0.000000,0.000000,0.000000,0.000000,908.115081
224.000000,-34.000000,1174.000000,1088.000000,-681.000000,2070.000000,0.000000,0.000000,0.000000,0.000000,1402.826076
224.000000,-34.000000,1174.000000,1319.000000,-712.000000,1631.000000,0.000000,0.000000,0.000000,0.000000,1366.586258
224.000000,-34.000000,1174.000000,1133.000000,-582.000000,1364.000000,0.000000,0.000000,0.000000,0.000000,1078.278721
224.000000,-34.000000,1174.000000,979.000000,-406.000000,1166.000000,0.000000,0.000000,0.000000,0.000000,841.708382
224.000000,-34.000000,1174.000000,705.000000,-229.000000,992.000000,0.000000,0.000000,0.000000,0.000000,550.009091
224.000000,-34.000000,1174.000000,470.000000,220.000000,896.000000,0.000000,0.000000,0.000000,0.000000,449.795509
224.000000,-34.000000,1174.000000,130.000000,630.000000,695.000000,0.000000,0.000000,0.000000,0.000000,824.119530
224.000000,-34.000000,1174.000000,-116.000000,837.000000,454.000000,0.000000,0.000000,0.000000,0.000000,1180.102114
224.000000,-34.000000,1174.000000,-739.000000,926.000000,390.000000,0.000000,0.000000,0.000000,0.000000,1569.593897
224.000000,-34.000000,1174.000000,-900.000000,982.000000,540.000000,0.000000,0.000000,0.000000,0.000000,1642.433560
224.000000,-34.000000,1174.000000,-686.000000,865.000000,670.000000,0.000000,0.000000,0.000000,0.000000,1374.887995
224.000000,-34.000000,1174.000000,-672.000000,636.000000,1335.000000,0.000000,0.000000,0.000000,0.000000,1130.326059
224.000000,-34.000000,1174.000000,-453.000000,371.000000,1648.000000,0.000000,0.000000,0.000000,0.000000,920.342328
224.000000,-34.000000,1174.000000,-289.000000,122.000000,1752.000000,0.000000,0.000000,0.000000,0.000000,788.409158
224.000000,-34.000000,1174.000000,-139.000000,-65.000000,2087.000000,0.000000,0.000000,0.000000,0.000000,983.005086
224.000000,-34.000000,1174.000000,104.000000,-69.000000,1911.000000,0.000000,0.000000,0.000000,0.000000,747.525250
224.000000,-34.000000,1174.000000,257.000000,-41.000000,1919.000000,0.000000,0.000000,0.000000,0.000000,745.763367
224.000000,-34.000000,1174.000000,252.000000,-149.000000,2120.000000,0.000000,0.000000,0.000000,0.000000,953.375582
224.000000,-34.000000,1174.000000,843.000000,-244.000000,2120.000000,0.000000,0.000000,0.000000,0.000000,1149.859557
224.000000,-34.000000,1174.000000,1104.000000,-226.000000,1567.000000,0.000000,0.000000,0.000000,0.000000,982.706976
224.000000,-34.000000,1174.000000,1348.000000,-337.000000,1171.000000,0.000000,0.000000,0.000000,0.000000,1164.128000
224.000000,-34.000000,1174.000000,1230.000000,-398.000000,1057.000000,0.000000,0.000000,0.000000,0.000000,1076.206765
224.000000,-34.000000,1174.000000,575.000000,-434.000000,1158.000000,0.000000,0.000000,0.000000,0.000000,532.406799
224.000000,-34.000000,1174.000000,1001.000000,-28.000000,1201.000000,0.000000,0.000000,0.000000,0.000000,777.492122
224.000000,-34.000000,1174.000000,145.000000,369.000000,1065.000000,0.000000,0.000000,0.000000,0.000000,424.889397
224.000000,-34.000000,1174.000000,-43.000000,622.000000,697.000000,0.000000,0.000000,0.000000,0.000000,853.905147
224.000000,-34.000000,1174.000000,-138.000000,733.000000,552.000000,0.000000,0.000000,0.000000,0.000000,1051.768511
224.000000,-34.000000,1174.000000,-382.000000,850.000000,267.000000,0.000000,0.000000,0.000000,0.000000,1404.044515
224.000000,-34.000000,1174.000000,-751.000000,994.000000,359.000000,0.000000,0.000000,0.000000,0.000000,1634.513383
224.000000,-34.000000,1174.000000,-775.000000,939.000000,563.000000,0.000000,0.000000,0.000000,0.000000,1522.514696
224.000000,-34.000000,1174.000000,-979.000000,671.000000,764.000000,0.000000,0.000000,0.000000,0.000000,1453.387079
224.000000,-34.000000,1174.000000,-703.000000,593.000000,1419.000000,0.000000,0.000000,0.000000,0.000000,1145.636504
224.000000,-34.000000,1174.000000,-549.000000,489.000000,1349.000000,0.000000,0.000000,0.000000,0.000000,949.569903
224.000000,-34.000000,1174.000000,-424.000000,172.000000,1841.000000,0.000000,0.000000,0.000000,0.000000,952.485695
224.000000,-34.000000,1174.000000,203.000000,-208.000000,2025.000000,0.000000,0.000000,0.000000,0.000000,868.860173
224.000000,-34.000000,1174.000000,-37.000000,-146.000000,2025.000000,0.000000,0.000000,0.000000,0.000000,897.143244
224.000000,-34.000000,1174.000000,-116.000000,102.000000,1986.000000,0.000000,0.000000,0.000000,0.000000,890.752491
224.000000,-34.000000,1174.000000,-71.000000,105.000000,2031.000000,0.000000,0.000000,0.000000,0.000000,916.948744
224.000000,-34.000000,1174.000000,450.000000,36.000000,1962.000000,0.000000,0.000000,0.000000,0.000000,822.751481
224.000000,-34.000000,1174.000000,870.000000,-208.000000,1872.000000,0.000000,0.000000,0.000000,0.000000,966.848489
224.000000,-34.000000,1174.000000,1447.000000,-334.000000,1250.000000,0.000000,0.000000,0.000000,0.000000,1261.548651
224.000000,-34.000000,1174.000000,1357.000000,-514.000000,1149.000000,0.000000,0.000000,0.000000,0.000000,1230.737177
224.000000,-34.000000,1174.000000,1194.000000,-423.000000,1532.000000,0.000000,0.000000,0.000000,0.000000,1104.710369
224.000000,-34.000000,1174.000000,866.000000,-253.000000,941.000000,0.000000,0.000000,0.000000,0.000000,717.226603
224.000000,-34.000000,1174.000000,458.000000,119.000000,820.000000,0.000000,0.000000,0.000000,0.000000,451.088683
224.000000,-34.000000,1174.000000,162.000000,348.000000,540.000000,0.000000,0.000000,0.000000,0.000000,742.781260
224.000000,-34.000000,1174.000000,10.000000,463.000000,579.000000,0.000000,0.000000,0.000000,0.000000,804.257421
224.000000,-34.000000,1174.000000,-206.000000,704.000000,579.000000,0.000000,0.000000,0.000000,0.000000,1040.946204
224.000000,-34.000000,1174.000000,-531.000000,993.000000,344.000000,0.000000,0.000000,0.000000,0.000000,1521.070018
224.000000,-34.000000,1174.000000,-865.000000,1091.000000,833.000000,0.000000,0.000000,0.000000,0.000000,1602.444071
224.000000,-34.000000,1174.000000,-1460.000000,828.000000,734.000000,0.000000,0.000000,0.000000,0.000000,1942.292460
224.000000,-34.000000,1174.000000,-1079.000000,803.000000,1329.000000,0.000000,0.000000,0.000000,0.000000,1556.407080
224.000000,-34.000000,1174.000000,-1012.000000,471.000000,1744.000000,0.000000,0.000000,0.000000,0.000000,1451.764788
224.000000,-34.000000,1174.000000,-280.000000,451.000000,1542.000000,0.000000,0.000000,0.000000,0.000000,790.357514
224.000000,-34.000000,1174.000000,-227.000000,192.000000,1682.000000,0.000000,0.000000,0.000000,0.000000,715.919688
224.000000,-34.000000,1174.000000,-286.000000,57.000000,1713.000000,0.000000,0.000000,0.000000,0.000000,747.597485
224.000000,-34.000000,1174.000000,-12.000000,59.000000,1800.000000,0.000000,0.000000,0.000000,0.000000,675.441337
224.000000,-34.000000,1174.000000,181.000000,-181.000000,2061.000000,0.000000,0.000000,0.000000,0.000000,900.126102
224.000000,-34.000000,1174.000000,854.000000,-267.000000,1675.000000,0.000000,0.000000,0.000000,0.000000,837.967780
224.000000,-34.000000,1174.000000,1118.000000,-337.000000,1708.000000,0.000000,0.000000,0.000000,0.000000,1084.528008
224.000000,-34.000000,1174.000000,1186.000000,-236.000000,1207.000000,0.000000,0.000000,0.000000,0.000000,983.532918
224.000000,-34.000000,1174.000000,933.000000,-7.000000,865.000000,0.000000,0.000000,0.000000,0.000000,773.880482
224.000000,-34.000000,1174.000000,421.000000,111.000000,729.000000,0.000000,0.000000,0.000000,0.000000,507.798188
224.000000,-34.000000,1174.000000,149.000000,153.000000,833.000000,0.000000,0.000000,0.000000,0.000000,396.074488
224.000000,-34.000000,1174.000000,91.000000,204.000000,1256.000000,0.000000,0.000000,0.000000,0.000000,284.705111
224.000000,-34.000000,1174.000000,-219.000000,302.000000,1027.000000,0.000000,0.000000,0.000000,0.000000,575.112163
224.000000,-34.000000,1174.000000,-428.000000,369.000000,1088.000000,0.000000,0.000000,0.000000,0.000000,771.303442
224.000000,-34.000000,1174.000000,-325.000000,321.000000,995.000000,0.000000,0.000000,0.000000,0.000000,677.839952
224.000000,-34.000000,1174.000000,-126.000000,214.000000,952.000000,0.000000,0.000000,0.000000,0.000000,482.998965
224.000000,-34.000000,1174.000000,-53.000000,142.000000,1348.000000,0.000000,0.000000,0.000000,0.000000,371.457938
224.000000,-34.000000,1174.000000,-155.000000,-183.000000,1977.000000,0.000000,0.000000,0.000000,0.000000,900.361594
224.000000,-34.000000,1174.000000,-181.000000,-262.000000,2825.000000,0.000000,0.000000,0.000000,0.000000,1715.170545
224.000000,-34.000000,1174.000000,307.000000,-197.000000,2718.000000,0.000000,0.000000,0.000000,0.000000,1554.797093
224.000000,-34.000000,1174.000000,53.000000,-31.000000,1933.000000,0.000000,0.000000,0.000000,0.000000,778.030205
224.000000,-34.000000,1174.000000,-343.000000,21.000000,1121.000000,0.000000,0.000000,0.000000,0.000000,572.121491
224.000000,-34.000000,1174.000000,128.000000,201.000000,195.000000,0.000000,0.000000,0.000000,0.000000,1011.376290
224.000000,-34.000000,1174.000000,39.000000,462.000000,-467.000000,0.000000,0.000000,0.000000,0.000000,1724.274340
224.000000,-34.000000,1174.000000,-71.000000,585.000000,-620.000000,0.000000,0.000000,0.000000,0.000000,1920.578559
224.000000,-34.000000,1174.000000,-68.000000,506.000000,-36.000000,0.000000,0.000000,0.000000,0.000000,1356.821285
224.000000,-34.000000,1174.000000,-93.000000,570.000000,856.000000,0.000000,0.000000,0.000000,0.000000,752.614775
224.000000,-34.000000,1174.000000,-236.000000,104.000000,2233.000000,0.000000,0.000000,0.000000,0.000000,1162.809099
224.000000,-34.000000,1174.000000,-482.000000,-296.000000,2808.000000,0.000000,0.000000,0.000000,0.000000,1799.176478
224.000000,-34.000000,1174.000000,-70.000000,-360.000000,3011.000000,0.000000,0.000000,0.000000,0.000000,1888.724702
224.000000,-34.000000,1174.000000,123.000000,23.000000,2055.000000,0.000000,0.000000,0.000000,0.000000,888.600585
224.000000,-34.000000,1174.000000,-281.000000,71.000000,1392.000000,0.000000,0.000000,0.000000,0.000000,559.976785
224.000000,-34.000000,1174.000000,-173.000000,133.000000,989.000000,0.000000,0.000000,0.000000,0.000000,468.746200
224.000000,-34.000000,1174.000000,-286.000000,24.000000,571.000000,0.000000,0.000000,0.000000,0.000000,791.879410
224.000000,-34.000000,1174.000000,-40.000000,254.000000,-114.000000,0.000000,0.000000,0.000000,0.000000,1345.950965
224.000000,-34.000000,1174.000000,-225.000000,317.000000,-284.000000,0.000000,0.000000,0.000000,0.000000,1565.428376
224.000000,-34.000000,1174.000000,33.000000,437.000000,142.000000,0.000000,0.000000,0.000000,0.000000,1150.367767
224.000000,-34.000000,1174.000000,-560.000000,407.000000,1571.000000,0.000000,0.000000,0.000000,0.000000,983.232424
224.000000,-34.000000,1174.000000,-355.000000,101.000000,2225.000000,0.000000,0.000000,0.000000,0.000000,1207.504451
224.000000,-34.000000,1174.000000,-98.000000,-237.000000,3218.000000,0.000000,0.000000,0.000000,0.000000,2079.141409
224.000000,-34.000000,1174.000000,59.000000,-226.000000,2905.000000,0.000000,0.000000,0.000000,0.000000,1749.414188
224.000000,-34.000000,1174.000000,61.000000,10.000000,1727.000000,0.000000,0.000000,0.000000,0.000000,578.198928
224.000000,-34.000000,1174.000000,-154.000000,76.000000,1129.000000,0.000000,0.000000,0.000000,0.000000,396.243612
224.000000,-34.000000,1174.000000,-449.000000,-78.000000,648.000000,0.000000,0.000000,0.000000,0.000000,855.301701
224.000000,-34.000000,1174.000000,-93.000000,-164.000000,179.000000,0.000000,0.000000,0.000000,0.000000,1052.337398
224.000000,-34.000000,1174.000000,85.000000,-6.000000,-298.000000,0.000000,0.000000,0.000000,0.000000,1478.813376
224.000000,-34.000000,1174.000000,79.000000,172.000000,-435.000000,0.000000,0.000000,0.000000,0.000000,1628.601240
224.000000,-34.000000,1174.000000,-32.000000,250.000000,-162.000000,0.000000,0.000000,0.000000,0.000000,1389.635924
224.000000,-34.000000,1174.000000,-234.000000,639.000000,1731.000000,0.000000,0.000000,0.000000,0.000000,986.378224
224.000000,-34.000000,1174.000000,-355.000000,254.000000,2540.000000,0.000000,0.000000,0.000000,0.000000,1511.337487
224.000000,-34.000000,1174.000000,212.000000,45.000000,2984.000000,0.000000,0.000000,0.000000,0.000000,1811.762954
224.000000,-34.000000,1174.000000,-601.000000,-322.000000,2648.000000,0.000000,0.000000,0.000000,0.000000,1713.547490
224.000000,-34.000000,1174.000000,192.000000,-105.000000,1878.000000,0.000000,0.000000,0.000000,0.000000,708.294430
224.000000,-34.000000,1174.000000,-127.000000,-165.000000,856.000000,0.000000,0.000000,0.000000,0.000000,491.412251
224.000000,-34.000000,1174.000000,-122.000000,-197.000000,184.000000,0.000000,0.000000,0.000000,0.000000,1061.312866
224.000000,-34.000000,1174.000000,207.000000,54.000000,-261.000000,0.000000,0.000000,0.000000,0.000000,1437.796230
224.000000,-34.000000,1174.000000,-204.000000,366.000000,-429.000000,0.000000,0.000000,0.000000,0.000000,1706.690657
224.000000,-34.000000,1174.000000,-402.000000,568.000000,512.000000,0.000000,0.000000,0.000000,0.000000,1092.027472
224.000000,-34.000000,1174.000000,-463.000000,423.000000,1257.000000,0.000000,0.000000,0.000000,0.000000,829.281014
224.000000,-34.000000,1174.000000,-817.000000,-127.000000,2801.000000,0.000000,0.000000,0.000000,0.000000,1933.768083
224.000000,-34.000000,1174.000000,76.000000,-324.000000,2960.000000,0.000000,0.000000,0.000000,0.000000,1815.433832
224.000000,-34.000000,1174.000000,-129.000000,-192.000000,1939.000000,0.000000,0.000000,0.000000,0.000000,857.203593
224.000000,-34.000000,1174.000000,-104.000000,-65.000000,1406.000000,0.000000,0.000000,0.000000,0.000000,402.950369
224.000000,-34.000000,1174.000000,-158.000000,-186.000000,639.000000,0.000000,0.000000,0.000000,0.000000,674.724388
224.000000,-34.000000,1174.000000,-210.000000,-162.000000,431.000000,0.000000,0.000000,0.000000,0.000000,869.936205
224.000000,-34.000000,1174.000000,-176.000000,95.000000,86.000000,0.000000,0.000000,0.000000,0.000000,1166.355435
224.000000,-34.000000,1174.000000,-407.000000,316.000000,-12.000000,0.000000,0.000000,0.000000,0.000000,1388.256821
224.000000,-34.000000,1174.000000,-375.000000,317.000000,544.000000,0.000000,0.000000,0.000000,0.000000,937.497733
224.000000,-34.000000,1174.000000,-204.000000,206.000000,1362.000000,0.000000,0.000000,0.000000,0.000000,525.478829
224.000000,-34.000000,1174.000000,-366.000000,-131.000000,2939.000000,0.000000,0.000000,0.000000,0.000000,1863.527301
224.000000,-34.000000,1174.000000,555.000000,-415.000000,2957.000000,0.000000,0.000000,0.000000,0.000000,1853.054505
224.000000,-34.000000,1174.000000,263.000000,-428.000000,2782.000000,0.000000,0.000000,0.000000,0.000000,1656.025664
224.000000,-34.000000,1174.000000,222.000000,-149.000000,1466.000000,0.000000,0.000000,0.000000,0.000000,313.835944
224.000000,-34.000000,1174.000000,-339.000000,-12.000000,635.000000,0.000000,0.000000,0.000000,0.000000,779.726875
224.000000,-34.000000,1174.000000,-435.000000,44.000000,90.000000,0.000000,0.000000,0.000000,0.000000,1270.992132
224.000000,-34.000000,1174.000000,-174.000000,315.000000,-326.000000,0.000000,0.000000,0.000000,0.000000,1590.661812
224.000000,-34.000000,1174.000000,-368.000000,348.000000,-319.000000,0.000000,0.000000,0.000000,0.000000,1650.889760
224.000000,-34.000000,1174.000000,-259.000000,292.000000,214.000000,0.000000,0.000000,0.000000,0.000000,1123.016028
224.000000,-34.000000,1174.000000,-341.000000,261.000000,1042.000000,0.000000,0.000000,0.000000,0.000000,650.902450
224.000000,-34.000000,1174.000000,-170.000000,-22.000000,1921.000000,0.000000,0.000000,0.000000,0.000000,844.623585
224.000000,-34.000000,1174.000000,-66.000000,-475.000000,3192.000000,0.000000,0.000000,0.000000,0.000000,2085.882307
224.000000,-34.000000,1174.000000,368.000000,-667.000000,3046.000000,0.000000,0.000000,0.000000,0.000000,1981.365438
224.000000,-34.000000,1174.000000,208.000000,-324.000000,2490.000000,0.000000,0.000000,0.000000,0.000000,1347.669099
224.000000,-34.000000,1174.000000,-88.000000,63.000000,861.000000,0.000000,0.000000,0.000000,0.000000,452.462153
224.000000,-34.000000,1174.000000,-843.000000,-41.000000,529.000000,0.000000,0.000000,0.000000,0.000000,1246.821158
224.000000,-34.000000,1174.000000,-382.000000,209.000000,-100.000000,0.000000,0.000000,0.000000,0.000000,1431.558940
224.000000,-34.000000,1174.000000,-361.000000,404.000000,-406.000000,0.000000,0.000000,0.000000,0.000000,1740.824230
224.000000,-34.000000,1174.000000,-426.000000,418.000000,-241.000000,0.000000,0.000000,0.000000,0.000000,1621.428074
224.000000,-34.000000,1174.000000,-289.000000,427.000000,395.000000,0.000000,0.000000,0.000000,0.000000,1040.447500
224.000000,-34.000000,1174.000000,-118.000000,329.000000,847.000000,0.000000,0.000000,0.000000,0.000000,596.374044
224.000000,-34.000000,1174.000000,-231.000000,116.000000,1947.000000,0.000000,0.000000,0.000000,0.000000,909.425093
224.000000,-34.000000,1174.000000,383.000000,-290.000000,2878.000000,0.000000,0.000000,0.000000,0.000000,1730.443007
224.000000,-34.000000,1174.000000,823.000000,-722.000000,3608.000000,0.000000,0.000000,0.000000,0.000000,2599.327028
224.000000,-34.000000,1174.000000,512.000000,-642.000000,2967.000000,0.000000,0.000000,0.000000,0.000000,1915.060573
224.000000,-34.000000,1174.000000,547.000000,-103.000000,1024.000000,0.000000,0.000000,0.000000,0.000000,362.753360
224.000000,-34.000000,1174.000000,-333.000000,47.000000,351.000000,0.000000,0.000000,0.000000,0.000000,997.065193
224.000000,-34.000000,1174.000000,-349.000000,262.000000,-33.000000,0.000000,0.000000,0.000000,0.000000,1368.500639
224.000000,-34.000000,1174.000000,-310.000000,276.000000,22.000000,0.000000,0.000000,0.000000,0.000000,1307.042463
224.000000,-34.000000,1174.000000,-298.000000,354.000000,54.000000,0.000000,0.000000,0.000000,0.000000,1295.155589
224.000000,-34.000000,1174.000000,-352.000000,215.000000,513.000000,0.000000,0.000000,0.000000,0.000000,911.426355
224.000000,-34.000000,1174.000000,-225.000000,-18.000000,942.000000,0.000000,0.000000,0.000000,0.000000,505.649088
224.000000,-34.000000,1174.000000,-599.000000,-120.000000,1775.000000,0.000000,0.000000,0.000000,0.000000,1022.705236
224.000000,-34.000000,1174.000000,-71.000000,-71.000000,1607.000000,0.000000,0.000000,0.000000,0.000000,525.245657
224.000000,-34.000000,1174.000000,-127.000000,-257.000000,1841.000000,0.000000,0.000000,0.000000,0.000000,786.014631
224.000000,-34.000000,1174.000000,68.000000,-158.000000,1687.000000,0.000000,0.000000,0.000000,0.000000,550.346255
224.000000,-34.000000,1174.000000,167.000000,-158.000000,1420.000000,0.000000,0.000000,0.000000,0.000000,281.320102
224.000000,-34.000000,1174.000000,244.000000,-303.000000,1351.000000,0.000000,0.000000,0.000000,0.000000,322.629819
224.000000,-34.000000,1174.000000,218.000000,-306.000000,1352.000000,0.000000,0.000000,0.000000,0.000000,325.121516
224.000000,-34.000000,1174.000000,177.000000,-155.000000,1029.000000,0.000000,0.000000,0.000000,0.000000,194.615005
224.000000,-34.000000,1174.000000,315.000000,-82.000000,825.000000,0.000000,0.000000,0.000000,0.000000,363.848870
224.000000,-34.000000,1174.000000,402.000000,-70.000000,731.000000,0.000000,0.000000,0.000000,0.000000,478.778654
224.000000,-34.000000,1174.000000,644.000000,-245.000000,646.000000,0.000000,0.000000,0.000000,0.000000,706.898154
224.000000,-34.000000,1174.000000,406.000000,-333.000000,992.000000,0.000000,0.000000,0.000000,0.000000,394.523764
224.000000,-34.000000,1174.000000,-1116.000000,-1360.000000,1438.000000,0.000000,0.000000,0.000000,0.000000,1903.568228
224.000000,-34.000000,1174.000000,778.000000,-17.000000,770.000000,0.000000,0.000000,0.000000,0.000000,685.872437
224.000000,-34.000000,1174.000000,640.000000,-24.000000,1281.000000,0.000000,0.000000,0.000000,0.000000,429.656840
224.000000,-34.000000,1174.000000,877.000000,98.000000,714.000000,0.000000,0.000000,0.000000,0.000000,809.588167
224.000000,-34.000000,1174.000000,726.000000,-36.000000,1274.000000,0.000000,0.000000,0.000000,0.000000,511.867170
224.000000,-34.000000,1174.000000,530.000000,172.000000,666.000000,0.000000,0.000000,0.000000,0.000000,627.802517
224.000000,-34.000000,1174.000000,548.000000,22.000000,1553.000000,0.000000,0.000000,0.000000,0.000000,501.749938
224.000000,-34.000000,1174.000000,899.000000,166.000000,1386.000000,0.000000,0.000000,0.000000,0.000000,735.233976
224.000000,-34.000000,1174.000000,606.000000,6.000000,1286.000000,0.000000,0.000000,0.000000,0.000000,400.084991
224.000000,-34.000000,1174.000000,590.000000,27.000000,1302.000000,0.000000,0.000000,0.000000,0.000000,392.506051
224.000000,-34.000000,1174.000000,621.000000,89.000000,1223.000000,0.000000,0.000000,0.000000,0.000000,418.496117
224.000000,-34.000000,1174.000000,585.000000,133.000000,1125.000000,0.000000,0.000000,0.000000,0.000000,400.763022
224.000000,-34.000000,1174.000000,749.000000,264.000000,1557.000000,0.000000,0.000000,0.000000,0.000000,714.925171
224.000000,-34.000000,1174.000000,536.000000,-137.000000,1194.000000,0.000000,0.000000,0.000000,0.000000,329.170169
224.000000,-34.000000,1174.000000,290.000000,-135.000000,202.000000,0.000000,0.000000,0.000000,0.000000,979.459545
224.000000,-34.000000,1174.000000,1303.000000,-377.000000,-321.000000,0.000000,0.000000,0.000000,0.000000,1875.343968
224.000000,-34.000000,1174.000000,813.000000,37.000000,622.000000,0.000000,0.000000,0.000000,0.000000,810.349307
224.000000,-34.000000,1174.000000,607.000000,-116.000000,1833.000000,0.000000,0.000000,0.000000,0.000000,766.612027
224.000000,-34.000000,1174.000000,762.000000,-38.000000,1145.000000,0.000000,0.000000,0.000000,0.000000,538.795880
224.000000,-34.000000,1174.000000,762.000000,-61.000000,734.000000,0.000000,0.000000,0.000000,0.000000,695.537921
224.000000,-34.000000,1174.000000,787.000000,-56.000000,819.000000,0.000000,0.000000,0.000000,0.000000,665.941439
224.000000,-34.000000,1174.000000,696.000000,-91.000000,1096.000000,0.000000,0.000000,0.000000,0.000000,481.785222
224.000000,-34.000000,1174.000000,730.000000,-92.000000,882.000000,0.000000,0.000000,0.000000,0.000000,587.080914
224.000000,-34.000000,1174.000000,745.000000,-66.000000,881.000000,0.000000,0.000000,0.000000,0.000000,598.593351
224.000000,-34.000000,1174.000000,767.000000,-34.000000,962.000000,0.000000,0.000000,0.000000,0.000000,582.917661
224.000000,-34.000000,1174.000000,765.000000,-55.000000,965.000000,0.000000,0.000000,0.000000,0.000000,580.347310
224.000000,-34.000000,1174.000000,748.000000,-64.000000,902.000000,0.000000,0.000000,0.000000,0.000000,591.151419
224.000000,-34.000000,1174.000000,742.000000,-75.000000,923.000000,0.000000,0.000000,0.000000,0.000000,577.066721
224.000000,-34.000000,1174.000000,738.000000,-82.000000,922.000000,0.000000,0.000000,0.000000,0.000000,574.459746
224.000000,-34.000000,1174.000000,759.000000,-82.000000,915.000000,0.000000,0.000000,0.000000,0.000000,596.330445
224.000000,-34.000000,1174.000000,755.000000,-61.000000,924.000000,0.000000,0.000000,0.000000,0.000000,587.528723
224.000000,-34.000000,1174.000000,749.000000,-69.000000,935.000000,0.000000,0.000000,0.000000,0.000000,577.902241
224.000000,-34.000000,1174.000000,746.000000,-79.000000,936.000000,0.000000,0.000000,0.000000,0.000000,575.458947
224.000000,-34.000000,1174.000000,747.000000,-64.000000,932.000000,0.000000,0.000000,0.000000,0.000000,577.055457
224.000000,-34.000000,1174.000000,754.000000,-63.000000,930.000000,0.000000,0.000000,0.000000,0.000000,584.189182
224.000000,-34.000000,1174.000000,751.000000,-60.000000,944.000000,0.000000,0.000000,0.000000,0.000000,575.591001
224.000000,-34.000000,1174.000000,743.000000,-69.000000,928.000000,0.000000,0.000000,0.000000,0.000000,575.414633
224.000000,-34.000000,1174.000000,749.000000,-64.000000,927.000000,0.000000,0.000000,0.000000,0.000000,580.976764
224.000000,-34.000000,1174.000000,754.000000,-69.000000,920.000000,0.000000,0.000000,0.000000,0.000000,588.762261
224.000000,-34.000000,1174.000000,753.000000,-69.000000,930.000000,0.000000,0.000000,0.000000,0.000000,583.611172
224.000000,-34.000000,1174.000000,758.000000,-67.000000,913.000000,0.000000,0.000000,0.000000,0.000000,595.286486
224.000000,-34.000000,1174.000000,750.000000,-68.000000,941.000000,0.000000,0.000000,0.000000,0.000000,576.299401
224.000000,-34.000000,1174.000000,748.000000,-68.000000,934.000000,0.000000,0.000000,0.000000,0.000000,577.349114
224.000000,-34.000000,1174.000000,739.000000,-82.000000,942.000000,0.000000,0.000000,0.000000,0.000000,566.880058
224.000000,-34.000000,1174.000000,755.000000,-69.000000,924.000000,0.000000,0.000000,0.000000,0.000000,587.950678
224.000000,-34.000000,1174.000000,751.000000,-65.000000,939.000000,0.000000,0.000000,0.000000,0.000000,577.853788
224.000000,-34.000000,1174.000000,761.000000,-72.000000,922.000000,0.000000,0.000000,0.000000,0.000000,594.404744
224.000000,-34.000000,1174.000000,755.000000,-70.000000,922.000000,0.000000,0.000000,0.000000,0.000000,588.864161
224.000000,-34.000000,1174.000000,751.000000,-65.000000,939.000000,0.000000,0.000000,0.000000,0.000000,577.853788
224.000000,-34.000000,1174.000000,738.000000,-72.000000,930.000000,0.000000,0.000000,0.000000,0.000000,570.242054
224.000000,-34.000000,1174.000000,754.000000,-64.000000,919.000000,0.000000,0.000000,0.000000,0.000000,588.918500
224.000000,-34.000000,1174.000000,752.000000,-67.000000,941.000000,0.000000,0.000000,0.000000,0.000000,578.067470
224.000000,-34.000000,1174.000000,741.000000,-68.000000,921.000000,0.000000,0.000000,0.000000,0.000000,576.588241
224.000000,-34.000000,1174.000000,743.000000,-62.000000,935.000000,0.000000,0.000000,0.000000,0.000000,572.071674
224.000000,-34.000000,1174.000000,762.000000,-56.000000,928.000000,0.000000,0.000000,0.000000,0.000000,591.983108
224.000000,-34.000000,1174.000000,760.000000,-63.000000,916.000000,0.000000,0.000000,0.000000,0.000000,595.567796
224.000000,-34.000000,1174.000000,743.000000,-80.000000,935.000000,0.000000,0.000000,0.000000,0.000000,573.234681
224.000000,-34.000000,1174.000000,752.000000,-74.000000,927.000000,0.000000,0.000000,0.000000,0.000000,584.288456
