GX,GY,GZ,AX,AY,AZ,SX,SY,SZ,TA,TS
16380.000000,16380.000000,-16380.000000,32760.000000,32760.000000,-32760.000000,360.507420,360.507420,-360.507420,624.417168,28370.992228
11020.333333,10854.333333,-10543.666667,301.000000,-197.000000,1129.000000,136.848530,129.921350,-116.957230,222.004664,19320.642398
8341.250000,8092.250000,-7617.750000,304.000000,-194.000000,1160.000000,-33.123233,-45.316265,68.674627,88.695642,14502.007505
6732.600000,6435.400000,-5862.400000,298.000000,-192.000000,1159.000000,-174.105319,-190.522599,222.513501,340.769396,11602.868864
5659.833333,5331.666667,-4694.000000,296.000000,-187.000000,1148.000000,-298.632074,-318.643964,358.141373,564.783440,9662.057431
4895.571429,4541.857143,-3859.142857,310.000000,-197.000000,1150.000000,-420.200158,-444.275806,490.938759,784.200249,8281.047308
4322.500000,3950.250000,-3234.625000,311.000000,-191.000000,1137.000000,-505.881786,-532.728765,584.312298,938.689075,7235.550356
3876.444444,3489.222222,-2747.777778,308.000000,-199.000000,1147.000000,-583.374126,-612.822199,668.891292,1078.560141,6442.520691
3518.900000,3120.200000,-2358.000000,301.000000,-201.000000,1150.000000,-651.188150,-682.813167,742.818884,1200.857911,5804.421922
3225.818182,2817.818182,-2041.454545,295.000000,-206.000000,1124.000000,-716.357824,-750.050788,813.205931,1317.971397,5268.137630
2982.083333,2566.250000,-1773.750000,301.000000,-201.000000,1171.000000,-771.856249,-807.332863,874.162256,1418.346950,4849.477597
2775.538462,2354.846154,-1549.692308,297.000000,-182.000000,1139.000000,-823.085160,-859.766937,929.734837,1510.322891,4450.596324
2598.642857,2173.357143,-1357.142857,299.000000,-186.000000,1146.000000,-870.538290,-908.452271,981.387190,1595.695228,4137.710425
2446.133333,2014.933333,-1191.266667,311.000000,-203.000000,1131.000000,-916.565360,-956.264260,1031.448293,1678.814753,3856.286438
2312.375000,1877.000000,-1045.687500,306.000000,-192.000000,1138.000000,-957.782321,-998.767727,1076.307785,1753.089386,3615.908287
2194.411765,1754.529412,-916.941176,307.000000,-205.000000,1143.000000,-998.423959,-1040.962274,1120.664499,1826.565568,3412.541038
2089.722222,1646.055556,-802.500000,310.000000,-198.000000,1143.000000,-1035.009709,-1078.870524,1160.658142,1892.705478,3217.595738
1996.000000,1549.473684,-700.000000,309.000000,-189.000000,1145.000000,-1069.643819,-1114.561389,1198.535992,1955.216999,3045.042652
1911.350000,1462.050000,-607.600000,303.000000,-199.000000,1148.000000,-1104.380962,-1150.436747,1236.453441,2017.914549,2903.103199
1834.857143,1382.666667,-523.380952,305.000000,-205.000000,1161.000000,-1135.590048,-1182.825147,1270.814812,2074.514490,2774.578800
1765.545455,1310.409091,-447.954545,310.000000,-207.000000,1136.000000,-1165.842104,-1214.362977,1303.735724,2129.223354,2632.499748
1701.956522,1244.695652,-378.695652,303.000000,-201.000000,1145.000000,-1194.599055,-1244.080697,1335.056811,2181.096140,2523.640963
1644.125000,1184.625000,-314.833333,314.000000,-197.000000,1154.000000,-1222.733859,-1273.304829,1366.125574,2232.192277,2415.696901
1590.360000,1129.280000,-256.360000,300.000000,-199.000000,1147.000000,-1250.036586,-1301.409906,1395.819268,2281.352809,2323.526625
1541.269231,1078.230769,-202.384615,314.000000,-198.000000,1147.000000,-1276.285420,-1328.705929,1424.679906,2328.964739,2226.161176
1495.444444,1030.555556,-152.962963,304.000000,-209.000000,1132.000000,-1301.551191,-1354.991944,1451.928831,2374.475943,2146.431377
1452.714286,986.571429,-106.892857,299.000000,-201.000000,1137.000000,-1326.807150,-1380.989070,1479.158890,2419.805581,2070.906080
1412.965517,945.689655,-63.379310,300.000000,-199.000000,1155.000000,-1350.883933,-1405.752142,1505.516089,2463.250937,2008.346283
1376.166667,907.233333,-22.600000,309.000000,-208.000000,1160.000000,-1373.743711,-1429.641555,1530.848564,2504.904007,1944.513523
1341.645161,871.516129,15.161290,306.000000,-200.000000,1148.000000,-1395.557505,-1452.210899,1554.709545,2544.330760,1871.905782
1309.531250,838.156250,50.468750,314.000000,-196.000000,1145.000000,-1416.892735,-1474.373902,1578.166445,2583.016212,1805.148270
1278.939394,806.909091,83.303030,300.000000,-193.000000,1134.000000,-1437.953637,-1495.885946,1600.771139,2620.659014,1749.887039
1250.411765,777.470588,115.029412,309.000000,-194.000000,1162.000000,-1457.184796,-1515.731147,1622.158654,2655.602971,1710.601832
1223.600000,749.800000,144.685714,312.000000,-191.000000,1153.000000,-1476.155192,-1535.309195,1643.141675,2690.004283,1653.123377
1197.944444,723.527778,172.416667,300.000000,-196.000000,1143.000000,-1495.003944,-1554.611003,1663.515190,2723.808905,1610.548840
1173.918919,698.621622,198.729730,309.000000,-198.000000,1146.000000,-1512.874899,-1573.136999,1683.087688,2756.144888,1565.035474
1151.131579,674.815789,223.526316,308.000000,-206.000000,1141.000000,-1530.772053,-1591.834075,1702.562902,2788.533528,1525.930954
1129.512821,652.307692,247.358974,308.000000,-203.000000,1153.000000,-1547.751080,-1609.511575,1721.280690,2819.373713,1492.186393
1108.800000,631.050000,269.950000,301.000000,-198.000000,1151.000000,-1564.739114,-1626.946496,1739.809172,2849.964798,1454.686855
1089.243902,611.073171,291.463415,307.000000,-188.000000,1152.000000,-1581.477569,-1644.045064,1758.222934,2880.156829,1411.009096
1070.857143,592.047619,311.880952,317.000000,-188.000000,1149.000000,-1597.463110,-1660.585974,1775.974043,2909.212602,1370.234717
1053.000000,573.744186,331.116279,303.000000,-195.000000,1139.000000,-1612.712110,-1676.216081,1792.399935,2936.535071,1343.928469
1036.113636,556.159091,349.977273,310.000000,-200.000000,1161.000000,-1627.866827,-1691.997877,1809.326790,2964.198148,1325.434060
1019.844444,539.511111,367.911111,304.000000,-193.000000,1157.000000,-1642.676217,-1707.152067,1825.651461,2990.945769,1292.929647
1004.217391,523.304348,385.021739,301.000000,-206.000000,1155.000000,-1657.300326,-1722.318680,1841.663929,3017.408165,1272.503852
989.468085,507.914894,401.382979,311.000000,-200.000000,1154.000000,-1671.793761,-1737.441158,1857.741334,3043.813237,1236.080426
975.187500,493.333333,417.000000,304.000000,-192.000000,1151.000000,-1685.480617,-1751.416475,1872.709062,3068.443223,1207.861928
961.612245,479.020408,432.469388,310.000000,-208.000000,1175.000000,-1699.042623,-1765.715431,1888.163352,3093.486328,1203.306806
948.520000,465.600000,447.000000,307.000000,-192.000000,1159.000000,-1712.261142,-1779.265279,1902.834112,3117.434973,1162.295001
948.520000,465.600000,447.000000,305.000000,-197.000000,1158.000000,-1725.841345,-1793.248127,1917.838345,3142.032958,1165.623331
948.520000,465.600000,447.000000,295.000000,-205.000000,1160.000000,-1739.187530,-1806.943120,1932.399231,3166.067512,1176.928949
948.520000,465.600000,447.000000,296.000000,-193.000000,1167.000000,-1752.788005,-1820.670320,1947.406191,3190.532412,1173.855319
948.520000,465.600000,447.000000,311.000000,-190.000000,1168.000000,-1765.950880,-1834.206493,1962.292678,3214.574392,1164.510245
948.520000,465.600000,447.000000,296.000000,-192.000000,1143.000000,-1779.426071,-1847.786591,1976.665774,3238.499654,1158.721757
948.520000,465.600000,447.000000,293.000000,-194.000000,1156.000000,-1792.895695,-1861.340052,1991.234306,3262.525988,1169.384295
948.520000,465.600000,447.000000,312.000000,-198.000000,1162.000000,-1806.163318,-1875.172130,2006.137766,3286.804707,1164.795119
948.520000,465.600000,447.000000,302.000000,-199.000000,1167.000000,-1820.928542,-1890.350265,2022.581126,3313.614234,1173.917063
948.520000,465.600000,447.000000,317.000000,-190.000000,1160.000000,-1834.334449,-1904.267342,2037.716690,3338.159116,1156.286241
948.520000,465.600000,447.000000,298.000000,-192.000000,1165.000000,-1848.057819,-1918.140071,2052.863618,3362.860102,1170.956033
948.520000,465.600000,447.000000,305.000000,-190.000000,1156.000000,-1861.718461,-1932.057148,2067.914270,3387.493155,1160.435414
948.520000,465.600000,447.000000,298.000000,-210.000000,1146.000000,-1875.428170,-1946.295418,2082.645695,3412.141522,1169.706215
948.520000,465.600000,447.000000,314.000000,-196.000000,1167.000000,-1888.399663,-1959.820507,2097.364655,3435.969761,1165.645825
948.520000,465.600000,447.000000,312.000000,-201.000000,1148.000000,-1901.475693,-1973.514471,2111.765298,3459.757484,1157.978528
948.520000,465.600000,447.000000,300.000000,-208.000000,1163.000000,-1915.537552,-1988.120139,2127.290326,3485.293378,1177.697393
948.520000,465.600000,447.000000,297.000000,-209.000000,1151.000000,-1928.903485,-2001.959558,2141.732886,3509.349011,1172.680464
948.520000,465.600000,447.000000,306.000000,-199.000000,1170.000000,-1942.606509,-2016.133483,2157.152307,3534.376938,1173.564702
948.520000,465.600000,447.000000,312.000000,-207.000000,1160.000000,-1955.734097,-2030.005185,2171.857219,3558.480109,1168.724720
948.520000,465.600000,447.000000,307.000000,-193.000000,1167.000000,-1969.320849,-2043.953674,2187.106099,3583.211453,1167.776464
948.520000,465.600000,447.000000,310.000000,-201.000000,1160.000000,-1983.015826,-2058.250911,2202.398523,3608.227797,1166.375733
948.520000,465.600000,447.000000,297.000000,-199.000000,1157.000000,-1996.596109,-2072.103834,2217.197763,3632.626631,1170.585952
948.520000,465.600000,447.000000,300.000000,-205.000000,1156.000000,-2010.605438,-2086.590135,2232.513581,3657.937876,1171.735273
948.520000,465.600000,447.000000,310.000000,-199.000000,1150.000000,-2024.052670,-2100.586611,2247.318761,3682.349105,1159.141903
948.520000,465.600000,447.000000,303.000000,-198.000000,1161.000000,-2037.677660,-2114.593216,2262.389159,3707.025684,1169.126610
948.520000,465.600000,447.000000,304.000000,-191.000000,1173.000000,-2050.786552,-2127.947803,2277.155273,3730.860956,1172.009211
948.520000,465.600000,447.000000,301.000000,-198.000000,1162.000000,-2063.949339,-2141.437464,2291.689793,3754.661555,1170.842479
948.520000,465.600000,447.000000,307.000000,-198.000000,1159.000000,-2077.155670,-2155.098334,2306.347025,3778.658638,1165.700163
948.520000,465.600000,447.000000,309.000000,-189.000000,1166.000000,-2090.426989,-2168.682593,2321.267713,3802.808564,1163.807540
948.520000,465.600000,447.000000,290.000000,-215.000000,1157.000000,-2104.541706,-2183.270573,2336.485853,3828.176110,1183.623652
948.520000,465.600000,447.000000,325.000000,-189.000000,1161.000000,-2117.216621,-2196.577282,2351.000045,3851.591773,1151.987131
948.520000,465.600000,447.000000,310.000000,-194.000000,1162.000000,-2130.558496,-2210.359624,2365.939970,3875.905199,1163.617184
948.520000,465.600000,447.000000,295.000000,-196.000000,1166.000000,-2144.083093,-2224.051436,2380.819675,3900.230688,1175.484560
948.520000,465.600000,447.000000,303.000000,-191.000000,1169.000000,-2157.604155,-2237.804580,2395.942687,3924.737747,1170.087018
948.520000,465.600000,447.000000,313.000000,-197.000000,1144.000000,-2171.225255,-2252.006086,2410.881488,3949.443007,1152.707001
948.520000,465.600000,447.000000,301.000000,-194.000000,1151.000000,-2184.952679,-2265.989606,2425.806288,3974.073885,1161.882227
948.520000,465.600000,447.000000,300.000000,-197.000000,1183.000000,-2198.541767,-2279.873726,2441.228432,3998.875637,1183.770649
948.520000,465.600000,447.000000,315.000000,-191.000000,1152.000000,-2211.925510,-2293.745058,2456.122262,4023.234696,1153.037792
948.520000,465.600000,447.000000,307.000000,-206.000000,1171.000000,-2225.684190,-2308.148863,2471.649890,4048.490393,1177.612190
948.520000,465.600000,447.000000,304.000000,-198.000000,1140.000000,-2239.487230,-2322.360520,2486.491178,4073.241930,1155.863310
948.520000,465.600000,447.000000,313.000000,-212.000000,1167.000000,-2252.957077,-2336.722252,2501.751578,4098.151709,1175.341410
948.520000,465.600000,447.000000,305.000000,-198.000000,1145.000000,-2266.695585,-2350.889449,2516.653180,4122.879249,1158.312113
948.520000,465.600000,447.000000,294.000000,-190.000000,1152.000000,-2280.764493,-2364.981571,2531.807155,4147.899706,1164.144660
948.520000,465.600000,447.000000,303.000000,-200.000000,1177.000000,-2294.696751,-2379.347216,2547.562745,4173.368219,1180.092975
948.520000,465.600000,447.000000,319.000000,-196.000000,1176.000000,-2308.036909,-2393.367181,2563.010984,4198.126504,1168.525135
948.520000,465.600000,447.000000,294.000000,-205.000000,1165.000000,-2321.878043,-2407.548359,2578.194530,4223.090549,1180.518865
948.520000,465.600000,447.000000,302.000000,-193.000000,1170.000000,-2335.772405,-2421.702332,2593.732523,4248.284749,1172.378382
948.520000,465.600000,447.000000,306.000000,-203.000000,1161.000000,-2349.566024,-2436.055837,2609.060675,4273.409195,1170.322140
948.520000,465.600000,447.000000,309.000000,-196.000000,1176.000000,-2362.889784,-2449.839611,2624.248661,4297.864968,1173.942669
948.520000,465.600000,447.000000,316.000000,-194.000000,1169.000000,-2376.031019,-2463.543461,2639.248933,4322.060240,1164.662058
948.520000,465.600000,447.000000,303.000000,-192.000000,1161.000000,-2389.689577,-2477.457619,2654.356459,4346.725289,1165.731457
948.520000,465.600000,447.000000,300.000000,-193.000000,1173.000000,-2403.310443,-2491.290195,2669.604637,4371.409022,1175.333208
948.520000,465.600000,447.000000,300.000000,-198.000000,1177.000000,-2417.188771,-2505.491235,2685.226637,4396.672602,1180.611346
948.520000,465.600000,447.000000,315.000000,-202.000000,1153.000000,-2430.346347,-2519.356619,2699.889551,4420.762913,1159.945408
948.520000,465.600000,447.000000,301.000000,-204.000000,1162.000000,-2443.838074,-2533.308405,2714.787291,4445.229582,1174.253512
948.520000,465.600000,447.000000,308.000000,-203.000000,1166.000000,-2457.284511,-2547.344325,2729.881258,4469.839142,1172.285302
948.520000,465.600000,447.000000,311.000000,-190.000000,1179.000000,-2472.635992,-2563.131173,2747.507818,4498.040614,1171.352684
948.520000,465.600000,447.000000,310.000000,-196.000000,1180.000000,-2486.253708,-2577.241116,2763.140509,4523.115601,1175.887474
948.520000,465.600000,447.000000,300.000000,-207.000000,1163.000000,-2499.753300,-2591.241958,2778.044765,4547.618515,1177.125716
948.520000,465.600000,447.000000,314.000000,-204.000000,1173.000000,-2513.380252,-2605.622287,2793.636341,4572.827550,1173.906210
948.520000,465.600000,447.000000,304.000000,-208.000000,1161.000000,-2526.921617,-2619.774623,2808.637481,4597.498932,1174.282330
948.520000,465.600000,447.000000,314.000000,-198.000000,1168.000000,-2540.111384,-2633.568876,2823.624908,4621.764651,1167.399499
948.520000,465.600000,447.000000,294.000000,-196.000000,1164.000000,-2553.737836,-2647.342727,2838.552131,4646.221976,1174.819131
948.520000,465.600000,447.000000,307.000000,-212.000000,1166.000000,-2567.416967,-2661.791192,2853.883368,4671.339477,1177.985853
948.520000,465.600000,447.000000,303.000000,-207.000000,1161.000000,-2581.269181,-2676.224515,2869.205094,4696.537672,1174.258417
948.520000,465.600000,447.000000,297.000000,-203.000000,1168.000000,-2595.005177,-2690.320609,2884.405937,4721.405983,1179.552996
948.520000,465.600000,447.000000,303.000000,-200.000000,1174.000000,-2609.054274,-2704.806727,2900.228365,4747.048368,1178.239547
948.520000,465.600000,447.000000,297.000000,-197.000000,1177.000000,-2622.723816,-2718.708738,2915.544495,4771.840013,1181.700923
948.520000,465.600000,447.000000,305.000000,-186.000000,1160.000000,-2636.178532,-2732.332391,2930.451899,4796.105282,1160.633254
948.520000,465.600000,447.000000,304.000000,-209.000000,1162.000000,-2649.738588,-2746.525300,2945.494784,4820.835543,1175.464245
948.520000,465.600000,447.000000,305.000000,-197.000000,1166.000000,-2663.619958,-2760.818245,2961.004333,4846.084535,1170.520290
948.520000,465.600000,447.000000,321.000000,-200.000000,1180.000000,-2676.817331,-2774.816478,2976.420056,4870.732374,1172.217433
948.520000,465.600000,447.000000,313.000000,-193.000000,1167.000000,-2690.254766,-2788.741917,2991.643736,4895.353350,1164.491147
948.520000,465.600000,447.000000,310.000000,-202.000000,1179.000000,-2704.127251,-2803.246194,3007.547168,4920.958584,1178.652430
948.520000,465.600000,447.000000,313.000000,-200.000000,1171.000000,-2717.451564,-2817.201164,3022.726552,4945.507174,1170.933401
948.520000,465.600000,447.000000,297.000000,-211.000000,1155.000000,-2731.967429,-2832.275812,3038.500792,4971.711915,1176.235466
948.520000,465.600000,447.000000,311.000000,-200.000000,1167.000000,-2745.446515,-2846.348593,3053.723752,4996.439295,1169.553381
948.520000,465.600000,447.000000,303.000000,-196.000000,1159.000000,-2758.967577,-2860.206466,3068.637304,5020.878212,1166.771027
948.520000,465.600000,447.000000,298.000000,-199.000000,1158.000000,-2772.943348,-2874.484733,3083.912428,5046.027462,1170.636763
948.520000,465.600000,447.000000,307.000000,-212.000000,1154.000000,-2786.405645,-2888.704169,3098.748823,5070.592910,1170.700077
948.520000,465.600000,447.000000,298.000000,-197.000000,1174.000000,-2800.962332,-2903.531169,3115.016902,5096.980825,1179.298109
948.520000,465.600000,447.000000,310.000000,-198.000000,1174.000000,-2814.278666,-2917.370547,3130.178487,5121.448299,1173.286730
948.520000,465.600000,447.000000,299.000000,-205.000000,1164.000000,-2828.192684,-2931.736140,3145.538061,5146.664973,1177.144677
948.520000,465.600000,447.000000,308.000000,-190.000000,1164.000000,-2841.660898,-2945.521441,3160.614420,5171.133022,1163.686483
948.520000,465.600000,447.000000,305.000000,-196.000000,1172.000000,-2855.071211,-2959.308524,3175.722695,5195.589783,1173.651375
948.520000,465.600000,447.000000,291.000000,-206.000000,1173.000000,-2868.758805,-2973.289221,3190.835837,5220.312175,1187.625829
948.520000,465.600000,447.000000,298.000000,-202.000000,1172.000000,-2882.817843,-2987.717392,3206.504537,5245.833134,1180.885697
948.520000,465.600000,447.000000,306.000000,-193.000000,1163.000000,-2896.560703,-3001.804187,3221.819061,5270.769426,1165.865305
948.520000,465.600000,447.000000,313.000000,-204.000000,1160.000000,-2909.921876,-3015.881858,3236.809173,5295.292468,1166.455670
948.520000,465.600000,447.000000,294.000000,-199.000000,1171.000000,-2924.189103,-3030.368809,3252.590925,5321.030422,1180.790240
948.520000,465.600000,447.000000,294.000000,-194.000000,1147.000000,-2937.782829,-3044.068041,3267.129225,5345.189572,1163.386690
948.520000,465.600000,447.000000,301.000000,-203.000000,1177.000000,-2951.414420,-3058.143408,3282.497185,5370.090870,1182.881275
948.520000,465.600000,447.000000,301.000000,-197.000000,1155.000000,-2965.667630,-3072.728559,3298.081681,5395.756487,1166.012397
948.520000,465.600000,447.000000,303.000000,-195.000000,1161.000000,-2982.791339,-3090.252296,3317.021959,5426.724435,1167.426413
948.520000,465.600000,447.000000,294.000000,-197.000000,1172.000000,-2996.392264,-3104.021124,3332.087459,5451.249450,1180.279709
948.520000,465.600000,447.000000,294.000000,-204.000000,1144.000000,-3010.160747,-3118.106829,3346.749551,5475.800442,1167.291562
948.520000,465.600000,447.000000,299.000000,-199.000000,1161.000000,-3024.389782,-3132.666221,3362.391149,5501.473025,1171.906733
948.520000,465.600000,447.000000,298.000000,-194.000000,1167.000000,-3038.033138,-3146.500012,3377.491709,5526.079796,1173.306622
948.520000,465.600000,447.000000,307.000000,-202.000000,1180.000000,-3052.048425,-3161.085069,3393.505560,5551.877015,1180.900788
948.520000,465.600000,447.000000,305.000000,-206.000000,1184.000000,-3067.224557,-3176.923412,3410.886231,5579.861444,1186.732299
948.520000,465.600000,447.000000,309.000000,-200.000000,1164.000000,-3081.079758,-3191.343636,3426.420036,5605.183399,1168.802032
948.520000,465.600000,447.000000,305.000000,-203.000000,1179.000000,-3095.034489,-3205.842227,3442.293456,5630.812296,1181.933987
948.520000,465.600000,447.000000,298.000000,-195.000000,1166.000000,-3109.559300,-3220.592104,3458.347288,5657.007911,1173.255995
948.520000,465.600000,447.000000,315.000000,-205.000000,1177.000000,-3122.719411,-3234.522478,3473.511578,5681.443026,1176.414872
948.520000,465.600000,447.000000,296.000000,-201.000000,1167.000000,-3136.535217,-3248.636400,3488.756138,5706.392119,1178.362385
948.520000,465.600000,447.000000,307.000000,-201.000000,1167.000000,-3150.033439,-3262.662330,3503.905658,5731.058454,1172.306901
948.520000,465.600000,447.000000,303.000000,-194.000000,1181.000000,-3163.869515,-3276.800197,3519.638214,5756.330688,1179.204915
948.520000,465.600000,447.000000,301.000000,-202.000000,1166.000000,-3177.307497,-3290.654899,3534.559621,5780.726971,1175.556426
948.520000,465.600000,447.000000,302.000000,-204.000000,1168.000000,-3190.998205,-3304.834349,3549.827517,5805.658879,1177.367092
948.520000,465.600000,447.000000,290.000000,-202.000000,1163.000000,-3204.902196,-3318.930055,3564.945141,5830.568468,1179.828102
948.520000,465.600000,447.000000,309.000000,-201.000000,1157.000000,-3218.759316,-3333.373944,3580.329421,5855.813534,1165.092868
948.520000,465.600000,447.000000,302.000000,-201.000000,1179.000000,-3233.412691,-3348.482433,3596.920201,5882.612274,1182.441403
948.520000,465.600000,447.000000,312.000000,-199.000000,1173.000000,-3246.891639,-3362.556003,3612.293977,5907.432265,1172.146267
948.520000,465.600000,447.000000,291.000000,-202.000000,1148.000000,-3260.718627,-3376.594963,3627.035306,5932.037139,1170.223616
948.520000,465.600000,447.000000,308.000000,-212.000000,1174.000000,-3274.355938,-3391.021745,3642.513863,5957.209290,1182.343702
948.520000,465.600000,447.000000,306.000000,-196.000000,1168.000000,-3287.889337,-3404.957026,3657.700286,5981.865931,1170.635516
948.520000,465.600000,447.000000,299.000000,-207.000000,1164.000000,-3301.638376,-3419.194622,3672.877742,6006.807700,1178.285191
948.520000,465.600000,447.000000,312.000000,-201.000000,1176.000000,-3315.004660,-3433.192556,3688.186013,6031.482661,1175.140107
948.520000,465.600000,447.000000,297.000000,-202.000000,1150.000000,-3328.703519,-3447.229513,3702.967291,6056.040389,1168.065525
948.520000,465.600000,447.000000,296.000000,-206.000000,1189.000000,-3343.186201,-3462.135675,3719.435981,6082.555501,1194.735498
948.520000,465.600000,447.000000,304.000000,-210.000000,1162.000000,-3357.229647,-3476.856324,3735.015116,6108.179656,1176.038431
948.520000,465.600000,447.000000,290.000000,-186.000000,1159.000000,-3371.285098,-3490.764074,3750.212044,6133.114006,1168.407100
948.520000,465.600000,447.000000,309.000000,-201.000000,1177.000000,-3384.709262,-3504.756675,3765.535474,6157.827015,1177.387528
948.520000,465.600000,447.000000,304.000000,-203.000000,1177.000000,-3398.247405,-3518.800618,3780.869124,6182.638154,1181.241715
948.520000,465.600000,447.000000,310.000000,-211.000000,1174.000000,-3411.437313,-3532.777144,3795.886763,6207.026277,1180.688083
948.520000,465.600000,447.000000,313.000000,-187.000000,1169.000000,-3424.827083,-3546.526773,3811.098581,6231.513869,1162.349530
948.520000,465.600000,447.000000,301.000000,-197.000000,1165.000000,-3438.160815,-3560.171033,3825.883637,6255.649700,1172.111305
948.520000,465.600000,447.000000,297.000000,-200.000000,1172.000000,-3451.636203,-3573.937637,3840.878812,6280.061525,1180.307871
948.520000,465.600000,447.000000,307.000000,-199.000000,1161.000000,-3464.925290,-3587.704826,3855.669322,6304.246117,1167.491786
948.520000,465.600000,447.000000,300.000000,-192.000000,1164.000000,-3478.515675,-3601.485492,3870.694774,6328.747671,1169.232633
948.520000,465.600000,447.000000,303.000000,-201.000000,1164.000000,-3491.695257,-3615.095464,3885.333763,6352.689937,1172.663903
948.520000,465.600000,447.000000,312.000000,-198.000000,1172.000000,-3504.756011,-3628.711873,3900.210038,6376.715682,1170.960149
948.520000,465.600000,447.000000,303.000000,-198.000000,1164.000000,-3518.064051,-3642.392650,3914.991710,6400.856113,1170.961157
948.520000,465.600000,447.000000,308.000000,-194.000000,1185.000000,-3531.267731,-3655.989645,3930.204842,6425.155419,1178.974991
948.520000,465.600000,447.000000,305.000000,-199.000000,1189.000000,-3544.584090,-3669.742212,3945.559048,6449.691502,1185.906889
948.520000,465.600000,447.000000,300.000000,-200.000000,1168.000000,-3557.852161,-3683.359723,3960.309987,6473.755173,1176.198347
948.520000,465.600000,447.000000,303.000000,-196.000000,1160.000000,-3571.515237,-3697.363148,3975.401345,6498.463756,1167.381527
948.520000,465.600000,447.000000,300.000000,-208.000000,1180.000000,-3584.948032,-3711.315425,3990.583974,6523.072514,1188.109486
948.520000,465.600000,447.000000,307.000000,-202.000000,1169.000000,-3598.319233,-3725.230212,4005.632620,6547.544129,1174.104625
948.520000,465.600000,447.000000,289.000000,-195.000000,1156.000000,-3612.399326,-3739.333361,4020.769061,6572.566220,1172.194519
948.520000,465.600000,447.000000,307.000000,-202.000000,1159.000000,-3625.539580,-3753.007812,4035.352957,6596.489852,1167.981879
948.520000,465.600000,447.000000,299.000000,-202.000000,1173.000000,-3639.254844,-3767.104854,4050.683173,6621.426505,1180.949614
948.520000,465.600000,447.000000,310.000000,-203.000000,1175.000000,-3652.424958,-3780.895397,4065.698901,6645.696775,1176.740307
948.520000,465.600000,447.000000,305.000000,-209.000000,1168.000000,-3665.751613,-3794.865689,4080.630090,6670.103629,1178.577172
948.520000,465.600000,447.000000,291.000000,-198.000000,1162.000000,-3679.462220,-3808.703076,4095.539270,6694.632422,1176.402359
948.520000,465.600000,447.000000,287.000000,-198.000000,1178.000000,-3693.374647,-3822.659248,4110.912931,6719.623883,1188.416876
948.520000,465.600000,447.000000,296.000000,-203.000000,1174.000000,-3707.048857,-3836.670429,4126.147943,6744.430892,1183.780939
948.520000,465.600000,447.000000,290.000000,-200.000000,1153.000000,-3721.212963,-3850.986820,4141.333297,6769.650425,1172.649969
948.520000,465.600000,447.000000,296.000000,-194.000000,1163.000000,-3734.779507,-3864.700563,4156.219653,6794.015764,1171.968647
948.520000,465.600000,447.000000,301.000000,-201.000000,1160.000000,-3748.365124,-3878.686498,4171.179106,6818.591143,1171.326902
948.520000,465.600000,447.000000,301.000000,-198.000000,1173.000000,-3762.058877,-3892.720311,4186.532554,6843.494227,1177.592081
948.520000,465.600000,447.000000,304.000000,-203.000000,1174.000000,-3775.568660,-3906.734835,4201.771201,6868.214979,1179.390093
948.520000,465.600000,447.000000,302.000000,-197.000000,1180.000000,-3788.994941,-3920.495049,4216.993412,6892.735127,1180.811530
948.520000,465.600000,447.000000,316.000000,-199.000000,1159.000000,-3802.901526,-3935.106945,4232.647444,6918.267924,1161.343494
948.520000,465.600000,447.000000,303.000000,-186.000000,1170.000000,-3816.427752,-3948.760571,4247.797186,6942.738060,1167.907372
948.520000,465.600000,447.000000,307.000000,-208.000000,1190.000000,-3829.842577,-3962.846221,4263.334059,6967.629556,1190.518320
948.520000,465.600000,447.000000,299.000000,-206.000000,1161.000000,-3843.550047,-3977.019667,4278.402315,6992.445121,1175.890637
948.520000,465.600000,447.000000,299.000000,-195.000000,1177.000000,-3856.855464,-3990.552058,4293.356365,7016.605210,1179.478101
948.520000,465.600000,447.000000,292.000000,-199.000000,1177.000000,-3870.257663,-4004.119203,4308.258585,7040.806559,1185.584949
948.520000,465.600000,447.000000,306.000000,-212.000000,1183.000000,-3883.596379,-4018.186179,4323.537945,7065.488048,1188.978431
948.520000,465.600000,447.000000,309.000000,-203.000000,1182.000000,-3897.063391,-4032.265558,4339.015575,7090.368450,1181.624640
948.520000,465.600000,447.000000,306.000000,-197.000000,1178.000000,-3914.203254,-4049.941075,4358.515731,7121.774302,1177.383417
948.520000,465.600000,447.000000,311.000000,-199.000000,1178.000000,-3928.345998,-4064.684562,4374.732235,7147.855971,1175.791610
948.520000,465.600000,447.000000,308.000000,-205.000000,1170.000000,-3941.706605,-4078.672607,4389.813292,7172.383281,1175.882320
948.520000,465.600000,447.000000,294.000000,-191.000000,1162.000000,-3955.493414,-4092.503229,4404.874052,7197.042882,1170.788192
948.520000,465.600000,447.000000,303.000000,-195.000000,1164.000000,-3969.093229,-4106.420750,4419.979808,7221.676671,1169.263627
948.520000,465.600000,447.000000,307.000000,-201.000000,1181.000000,-3982.829455,-4120.693989,4435.696216,7246.961456,1180.957015
948.520000,465.600000,447.000000,307.000000,-202.000000,1172.000000,-3996.781232,-4135.212954,4451.463516,7272.535584,1175.951815
948.520000,465.600000,447.000000,301.000000,-202.000000,1168.000000,-4010.395340,-4149.249244,4466.622541,7297.277369,1176.780740
948.520000,465.600000,447.000000,296.000000,-213.000000,1158.000000,-4024.118489,-4163.520881,4481.575582,7322.086822,1179.746291
948.520000,465.600000,447.000000,295.000000,-209.000000,1173.000000,-4037.854172,-4177.699624,4496.834650,7347.037656,1187.118170
948.520000,465.600000,447.000000,293.000000,-212.000000,1180.000000,-4052.101899,-4192.427260,4512.766405,7372.993744,1194.209877
948.520000,465.600000,447.000000,302.000000,-207.000000,1160.000000,-4066.171467,-4207.064381,4528.282711,7398.546169,1174.200950
948.520000,465.600000,447.000000,293.000000,-207.000000,1160.000000,-4079.968197,-4221.220593,4543.289222,7423.363169,1179.180321
948.520000,465.600000,447.000000,304.000000,-201.000000,1164.000000,-4093.440598,-4235.154533,4558.276673,7447.863860,1172.113728
948.520000,465.600000,447.000000,307.000000,-205.000000,1173.000000,-4106.924707,-4249.249874,4573.536467,7472.629447,1178.273428
948.520000,465.600000,447.000000,305.000000,-204.000000,1165.000000,-4120.869786,-4263.760106,4589.095527,7498.067470,1173.885067
948.520000,465.600000,447.000000,290.000000,-207.000000,1165.000000,-4134.867287,-4278.056892,4604.357335,7523.231002,1183.876408
948.520000,465.600000,447.000000,311.000000,-201.000000,1182.000000,-4148.197192,-4291.994831,4619.725450,7547.888632,1179.411849
948.520000,465.600000,447.000000,307.000000,-206.000000,1176.000000,-4161.655640,-4306.084328,4635.019141,7572.657548,1180.692793
948.520000,465.600000,447.000000,306.000000,-191.000000,1158.000000,-4175.222450,-4319.948437,4650.031906,7597.185908,1161.669708
948.520000,465.600000,447.000000,298.000000,-207.000000,1156.000000,-4188.838484,-4334.026627,4664.871985,7621.757362,1173.988088
948.520000,465.600000,447.000000,304.000000,-201.000000,1184.000000,-4202.264481,-4347.912572,4680.224432,7646.428658,1184.453710
948.520000,465.600000,447.000000,300.000000,-192.000000,1176.000000,-4215.934634,-4361.774122,4695.591023,7671.228935,1176.629487
948.520000,465.600000,447.000000,302.000000,-203.000000,1170.000000,-4229.633746,-4375.941088,4710.910670,7696.190055,1178.025072
948.520000,465.600000,447.000000,290.000000,-199.000000,1175.000000,-4244.119869,-4390.560958,4726.925214,7722.266569,1185.464361
948.520000,465.600000,447.000000,302.000000,-208.000000,1162.000000,-4257.725236,-4404.736197,4741.971674,7747.013650,1175.988975
948.520000,465.600000,447.000000,307.000000,-210.000000,1170.000000,-4271.112475,-4418.834618,4757.059238,7771.622337,1179.284644
948.520000,465.600000,447.000000,311.000000,-211.000000,1171.000000,-4284.494657,-4433.037128,4772.256722,7796.354717,1178.301876
948.520000,465.600000,447.000000,291.000000,-192.000000,1170.000000,-4298.271016,-4446.815163,4787.405018,7821.032261,1177.921606
948.520000,465.600000,447.000000,303.000000,-204.000000,1170.000000,-4312.169708,-4461.232321,4802.971931,7846.396675,1178.044664
948.520000,465.600000,447.000000,308.000000,-208.000000,1184.000000,-4325.675712,-4475.435851,4818.512313,7871.407582,1186.242737
948.520000,465.600000,447.000000,300.000000,-216.000000,1185.000000,-4339.683744,-4490.158411,4834.453113,7897.234608,1195.742761
948.520000,465.600000,447.000000,294.000000,-205.000000,1176.000000,-4354.668325,-4505.511127,4851.142839,7924.415031,1187.241252
948.520000,465.600000,447.000000,303.000000,-206.000000,1153.000000,-4368.422420,-4519.820908,4866.185581,7949.318058,1168.836443
948.520000,465.600000,447.000000,300.000000,-196.000000,1176.000000,-4382.014102,-4533.686721,4881.463963,7974.023658,1178.869692
948.520000,465.600000,447.000000,296.000000,-195.000000,1169.000000,-4396.194667,-4548.042880,4897.154467,7999.583955,1176.205216
948.520000,465.600000,447.000000,302.000000,-210.000000,1164.000000,-4409.725037,-4562.181837,4912.159843,8024.244035,1178.351590
948.520000,465.600000,447.000000,303.000000,-195.000000,1184.000000,-4423.335826,-4576.110588,4927.699488,8049.155868,1181.633374
948.520000,465.600000,447.000000,295.000000,-205.000000,1174.000000,-4436.969561,-4590.100645,4942.866162,8073.886840,1185.462674
948.520000,465.600000,447.000000,291.000000,-204.000000,1170.000000,-4451.032598,-4604.422050,4958.329686,8099.223844,1184.662699
948.520000,465.600000,447.000000,303.000000,-205.000000,1162.000000,-4464.666626,-4618.585793,4973.431201,8124.013830,1173.722893
948.520000,465.600000,447.000000,303.000000,-202.000000,1172.000000,-4478.511739,-4632.904477,4988.981001,8149.282344,1178.138714
948.520000,465.600000,447.000000,295.000000,-209.000000,1179.000000,-4492.751287,-4647.603337,5004.930549,8175.228480,1190.797023
948.520000,465.600000,447.000000,299.000000,-198.000000,1175.000000,-4506.258055,-4661.402899,5020.069309,8199.764296,1179.925926
948.520000,465.600000,447.000000,314.000000,-200.000000,1177.000000,-4519.508736,-4675.302624,5035.313899,8224.281117,1174.112001
948.520000,465.600000,447.000000,302.000000,-207.000000,1176.000000,-4533.178755,-4689.524078,5050.727875,8249.314988,1183.984742
948.520000,465.600000,447.000000,307.000000,-200.000000,1180.000000,-4546.388293,-4703.229448,5065.821078,8273.606042,1179.771279
948.520000,465.600000,447.000000,296.000000,-199.000000,1164.000000,-4560.544062,-4717.647280,5081.375676,8299.104576,1175.399724
948.520000,465.600000,447.000000,308.000000,-206.000000,1187.000000,-4574.133975,-4731.896617,5097.076256,8324.285770,1186.976171
948.520000,465.600000,447.000000,300.000000,-201.000000,1172.000000,-4587.749004,-4745.891218,5112.296906,8349.042102,1179.219551
948.520000,465.600000,447.000000,304.000000,-202.000000,1166.000000,-4601.289080,-4759.916158,5127.401658,8373.703529,1173.906636
948.520000,465.600000,447.000000,314.000000,-203.000000,1175.000000,-4614.506766,-4773.843765,5142.566626,8398.169353,1174.574642
948.520000,465.600000,447.000000,293.000000,-200.000000,1174.000000,-4628.492941,-4788.045007,5158.077898,8423.425045,1183.747790
948.520000,465.600000,447.000000,290.000000,-190.000000,1187.000000,-4642.416688,-4801.907013,5173.724458,8448.536467,1187.880444
948.520000,465.600000,447.000000,292.000000,-193.000000,1171.000000,-4656.487881,-4816.022787,5189.241950,8473.794125,1178.536580
948.520000,465.600000,447.000000,306.000000,-206.000000,1155.000000,-4669.975018,-4830.120342,5204.103578,8498.318848,1168.393132
948.520000,465.600000,447.000000,300.000000,-195.000000,1174.000000,-4684.232082,-4844.642973,5220.085946,8524.194567,1177.072449
948.520000,465.600000,447.000000,303.000000,-205.000000,1184.000000,-4697.811241,-4858.749714,5235.589478,8549.168171,1187.252892
948.520000,465.600000,447.000000,298.000000,-202.000000,1176.000000,-4711.407759,-4872.703222,5250.826307,8573.900901,1183.345694
948.520000,465.600000,447.000000,297.000000,-204.000000,1179.000000,-4725.152877,-4886.829773,5266.269311,8598.939899,1186.872559
948.520000,465.600000,447.000000,292.000000,-196.000000,1163.000000,-4739.117057,-4900.902005,5281.498631,8623.937542,1175.325091
948.520000,465.600000,447.000000,302.000000,-194.000000,1179.000000,-4752.834918,-4914.897398,5297.030207,8648.941276,1178.509343
948.520000,465.600000,447.000000,308.000000,-195.000000,1183.000000,-4766.318505,-4928.803689,5312.523743,8673.742353,1178.284444
948.520000,465.600000,447.000000,294.000000,-211.000000,1163.000000,-4780.183202,-4943.136106,5327.690771,8698.795029,1182.725662
948.520000,465.600000,447.000000,300.000000,-206.000000,1196.000000,-4793.777478,-4957.214186,5343.391309,8723.881342,1196.923452
948.520000,465.600000,447.000000,305.000000,-195.000000,1169.000000,-4807.689094,-4971.495036,5358.999505,8749.200707,1171.236249
948.520000,465.600000,447.000000,295.000000,-193.000000,1165.000000,-4821.497318,-4985.410596,5374.170127,8773.987676,1173.186409
948.520000,465.600000,447.000000,304.000000,-211.000000,1183.000000,-4835.244929,-4999.842474,5389.869007,8799.358283,1189.491316
948.520000,465.600000,447.000000,303.000000,-206.000000,1167.000000,-4852.253090,-5017.537791,5408.839567,8830.378870,1177.345587
948.520000,465.600000,447.000000,315.000000,-198.000000,1165.000000,-4865.712223,-5031.635973,5424.093477,8855.128798,1165.004957
948.520000,465.600000,447.000000,302.000000,-206.000000,1180.000000,-4879.201862,-5045.648907,5439.387522,8879.871638,1185.885184
948.520000,465.600000,447.000000,314.000000,-209.000000,1166.000000,-4892.510919,-5059.798642,5454.468547,8904.462506,1172.459718
948.520000,465.600000,447.000000,295.000000,-208.000000,1162.000000,-4906.575323,-5074.295187,5469.856062,8929.853212,1179.851834
948.520000,465.600000,447.000000,291.000000,-190.000000,1165.000000,-4920.343792,-5088.023451,5484.890982,8954.428779,1173.740989
948.520000,465.600000,447.000000,307.000000,-199.000000,1169.000000,-4933.682276,-5101.841814,5499.902806,8978.805130,1172.401412
948.520000,465.600000,447.000000,307.000000,-211.000000,1178.000000,-4947.480730,-5116.394804,5515.625885,9004.287327,1184.776971
948.520000,465.600000,447.000000,316.000000,-204.000000,1174.000000,-4960.733921,-5130.424933,5530.858716,9028.872530,1173.445657
948.520000,465.600000,447.000000,310.000000,-209.000000,1192.000000,-4974.859899,-5145.349108,5547.340351,9055.210292,1190.721609
948.520000,465.600000,447.000000,304.000000,-197.000000,1169.000000,-4988.361949,-5159.229916,5562.465529,9079.781441,1172.914656
948.520000,465.600000,447.000000,317.000000,-207.000000,1169.000000,-5002.495366,-5174.282704,5578.623889,9105.998346,1171.534152
948.520000,465.600000,447.000000,303.000000,-190.000000,1170.000000,-5016.008682,-5188.007034,5593.759171,9130.492963,1170.143765
948.520000,465.600000,447.000000,299.000000,-207.000000,1178.000000,-5029.578454,-5202.058993,5609.031223,9155.288551,1186.856348
948.520000,465.600000,447.000000,309.000000,-209.000000,1169.000000,-5043.101104,-5216.323410,5624.297913,9180.175689,1177.011041
948.520000,465.600000,447.000000,293.000000,-202.000000,1179.000000,-5057.277380,-5230.760928,5640.128145,9205.865514,1187.947907
948.520000,465.600000,447.000000,306.000000,-199.000000,1160.000000,-5070.728536,-5244.674329,5655.054800,9230.305601,1167.430559
948.520000,465.600000,447.000000,301.000000,-206.000000,1164.000000,-5084.224795,-5258.672488,5669.999231,9254.829516,1176.612812
948.520000,465.600000,447.000000,305.000000,-192.000000,1179.000000,-5097.716192,-5272.459072,5685.345611,9279.476804,1175.746465
948.520000,465.600000,447.000000,305.000000,-197.000000,1157.000000,-5111.287385,-5286.432643,5700.318801,9304.045532,1165.013627
948.520000,465.600000,447.000000,305.000000,-204.000000,1165.000000,-5125.164251,-5300.871898,5715.801753,9329.359096,1173.885067
948.520000,465.600000,447.000000,304.000000,-201.000000,1176.000000,-5138.777158,-5314.951156,5731.198962,9354.270576,1179.492514
948.520000,465.600000,447.000000,305.000000,-205.000000,1167.000000,-5152.381814,-5329.128311,5746.420482,9379.125506,1175.679527
948.520000,465.600000,447.000000,301.000000,-203.000000,1176.000000,-5166.130606,-5343.324695,5761.899339,9404.228210,1182.264400
948.520000,465.600000,447.000000,300.000000,-204.000000,1185.000000,-5179.778709,-5357.416427,5777.430549,9429.248220,1188.943376
948.520000,465.600000,447.000000,300.000000,-202.000000,1181.000000,-5193.733563,-5371.781843,5793.224761,9454.753388,1185.337062
948.520000,465.600000,447.000000,298.000000,-201.000000,1158.000000,-5207.343092,-5385.727782,5808.099592,9479.267202,1171.773370
948.520000,465.600000,447.000000,303.000000,-195.000000,1176.000000,-5220.874482,-5399.575279,5823.380890,9503.931215,1176.660287
948.520000,465.600000,447.000000,291.000000,-206.000000,1166.000000,-5235.170282,-5414.177206,5839.013388,9529.658968,1183.359671
948.520000,465.600000,447.000000,299.000000,-207.000000,1182.000000,-5248.801109,-5428.292390,5854.438098,9554.617564,1189.324174
948.520000,465.600000,447.000000,308.000000,-193.000000,1179.000000,-5262.432015,-5442.308057,5870.015790,9579.613409,1174.667540
948.520000,465.600000,447.000000,303.000000,-193.000000,1180.000000,-5275.991162,-5456.141950,5885.412455,9604.355651,1178.023357
948.520000,465.600000,447.000000,306.000000,-197.000000,1178.000000,-5289.408907,-5469.979025,5900.677928,9628.941641,1177.383417
948.520000,465.600000,447.000000,309.000000,-202.000000,1154.000000,-5302.863129,-5484.023994,5915.551794,9653.425794,1163.840449
948.520000,465.600000,447.000000,294.000000,-202.000000,1169.000000,-5317.216753,-5498.664462,5931.385254,9679.330343,1181.257885
948.520000,465.600000,447.000000,300.000000,-199.000000,1170.000000,-5330.954352,-5512.742684,5946.700563,9704.259569,1176.860378
948.520000,465.600000,447.000000,305.000000,-197.000000,1177.000000,-5344.475351,-5526.664573,5962.038593,9728.994925,1177.309114
948.520000,465.600000,447.000000,306.000000,-207.000000,1163.000000,-5357.848762,-5540.664069,5976.941417,9753.426597,1173.830784
948.520000,465.600000,447.000000,308.000000,-193.000000,1182.000000,-5371.377825,-5554.575018,5992.466087,9778.274550,1176.539345
948.520000,465.600000,447.000000,303.000000,-196.000000,1190.000000,-5384.976350,-5568.512284,6008.118125,9803.253681,1185.942507
948.520000,465.600000,447.000000,300.000000,-200.000000,1189.000000,-5398.676983,-5582.573749,6023.793617,9828.373842,1189.186928
948.520000,465.600000,447.000000,298.000000,-213.000000,1161.000000,-5412.648201,-5597.148042,6039.128195,9853.724986,1180.453400
948.520000,465.600000,447.000000,305.000000,-209.000000,1174.000000,-5426.680798,-5611.858369,6054.981157,9879.504828,1182.257227
948.520000,465.600000,447.000000,294.000000,-210.000000,1164.000000,-5440.917263,-5626.553345,6070.576624,9905.230121,1182.759819
948.520000,465.600000,447.000000,307.000000,-199.000000,1185.000000,-5454.351333,-5640.470733,6086.031082,9929.986550,1182.321898
948.520000,465.600000,447.000000,311.000000,-192.000000,1165.000000,-5467.965573,-5654.513781,6101.363972,9954.838820,1163.784134
948.520000,465.600000,447.000000,298.000000,-199.000000,1165.000000,-5481.737732,-5668.584028,6116.564750,9979.712309,1174.901456
948.520000,465.600000,447.000000,303.000000,-200.000000,1173.000000,-5495.280741,-5682.548316,6131.796230,10004.418563,1177.622788
948.520000,465.600000,447.000000,315.000000,-199.000000,1173.000000,-5508.959072,-5696.897695,6147.471296,10029.689762,1170.519863
948.520000,465.600000,447.000000,305.000000,-196.000000,1175.000000,-5522.487149,-5710.805850,6162.775312,10054.400395,1175.506933
948.520000,465.600000,447.000000,297.000000,-207.000000,1176.000000,-5536.402965,-5725.171913,6178.346023,10079.747556,1186.722407
948.520000,465.600000,447.000000,302.000000,-206.000000,1179.000000,-5550.627698,-5739.948456,6194.451487,10105.825317,1185.267341
948.520000,465.600000,447.000000,306.000000,-200.000000,1169.000000,-5565.259806,-5755.106165,6210.893593,10132.549674,1173.515790
948.520000,465.600000,447.000000,299.000000,-206.000000,1170.000000,-5578.908170,-5769.218496,6226.085992,10157.373932,1181.377074
948.520000,465.600000,447.000000,299.000000,-193.000000,1152.000000,-5592.804000,-5783.308584,6241.168762,10182.254283,1163.037055
948.520000,465.600000,447.000000,301.000000,-208.000000,1155.000000,-5606.400625,-5797.452837,6256.035346,10206.868551,1172.298217
948.520000,465.600000,447.000000,295.000000,-198.000000,1186.000000,-5620.306877,-5811.573582,6271.760527,10232.165802,1188.938329
948.520000,465.600000,447.000000,303.000000,-209.000000,1173.000000,-5634.304333,-5826.201608,6287.503111,10257.811943,1182.732950
948.520000,465.600000,447.000000,300.000000,-199.000000,1170.000000,-5647.899258,-5840.133618,6302.659360,10282.482274,1176.860378
948.520000,465.600000,447.000000,296.000000,-203.000000,1175.000000,-5661.668735,-5854.242415,6318.021616,10307.475164,1184.395335
948.520000,465.600000,447.000000,303.000000,-207.000000,1170.000000,-5675.278233,-5868.422841,6333.264625,10332.347771,1179.752445
948.520000,465.600000,447.000000,307.000000,-200.000000,1171.000000,-5689.200500,-5882.867692,6348.976873,10357.829982,1174.200694
948.520000,465.600000,447.000000,297.000000,-202.000000,1168.000000,-5703.300044,-5897.315224,6364.580034,10383.344223,1178.986459
948.520000,465.600000,447.000000,303.000000,-205.000000,1169.000000,-5717.065758,-5911.615769,6379.976684,10408.465034,1178.000183
948.520000,465.600000,447.000000,290.000000,-193.000000,1148.000000,-5730.829485,-5925.381167,6394.628285,10432.824136,1165.677293
948.520000,465.600000,447.000000,289.000000,-191.000000,1172.000000,-5744.511227,-5939.002334,6409.668410,10457.294444,1179.709791
948.520000,465.600000,447.000000,298.000000,-205.000000,1160.000000,-5758.567013,-5953.491988,6425.074201,10482.687603,1175.265770
948.520000,465.600000,447.000000,306.000000,-206.000000,1180.000000,-5771.931429,-5967.461268,6440.320601,10507.307736,1183.709217
948.520000,465.600000,447.000000,299.000000,-203.000000,1169.000000,-5789.791280,-5985.845763,6460.173435,10539.728335,1179.061572
948.520000,465.600000,447.000000,309.000000,-206.000000,1188.000000,-5803.110564,-5999.833176,6475.606242,10564.448237,1187.060820
948.520000,465.600000,447.000000,306.000000,-191.000000,1173.000000,-5818.179585,-6015.232416,6492.633120,10591.908210,1170.910548
948.520000,465.600000,447.000000,289.000000,-195.000000,1166.000000,-5831.596200,-6028.671001,6507.259737,10615.875733,1178.269914
948.520000,465.600000,447.000000,301.000000,-190.000000,1188.000000,-5846.098058,-6043.353819,6523.855173,10642.352851,1182.444295
948.520000,465.600000,447.000000,289.000000,-198.000000,1171.000000,-5859.955233,-6057.296719,6539.067137,10667.207596,1183.007857
948.520000,465.600000,447.000000,302.000000,-208.000000,1176.000000,-5873.415133,-6071.320397,6554.244188,10691.868572,1184.553110
948.520000,465.600000,447.000000,311.000000,-191.000000,1168.000000,-5887.051048,-6085.364414,6569.665657,10716.787622,1165.073521
948.520000,465.600000,447.000000,297.000000,-205.000000,1163.000000,-5900.691271,-6099.404096,6584.655833,10741.442186,1177.641147
948.520000,465.600000,447.000000,305.000000,-202.000000,1177.000000,-5914.251524,-6113.471763,6600.038393,10766.309251,1180.130396
948.520000,465.600000,447.000000,301.000000,-195.000000,1172.000000,-5927.866927,-6127.362199,6615.282968,10791.021387,1175.286991
948.520000,465.600000,447.000000,293.000000,-205.000000,1163.000000,-5941.566640,-6141.377069,6630.246652,10815.678300,1179.858818
948.520000,465.600000,447.000000,299.000000,-196.000000,1176.000000,-5955.272161,-6155.337490,6645.629281,10840.564315,1179.420108
948.520000,465.600000,447.000000,293.000000,-204.000000,1174.000000,-5969.346176,-6169.713802,6661.237971,10866.027493,1186.001531
948.520000,465.600000,447.000000,299.000000,-196.000000,1162.000000,-5983.037408,-6183.659669,6676.309456,10890.706656,1170.818428
948.520000,465.600000,447.000000,300.000000,-201.000000,1170.000000,-5996.738041,-6197.742260,6691.583554,10915.592825,1177.990981
948.520000,465.600000,447.000000,307.000000,-195.000000,1173.000000,-6010.515325,-6211.929306,6707.175130,10940.775036,1172.610878
948.520000,465.600000,447.000000,306.000000,-194.000000,1184.000000,-6023.848900,-6225.617325,6722.469354,10965.247870,1179.437625
948.520000,465.600000,447.000000,293.000000,-201.000000,1156.000000,-6037.647596,-6239.649255,6737.393804,10989.944795,1173.346935
948.520000,465.600000,447.000000,305.000000,-204.000000,1173.000000,-6051.149289,-6253.698133,6752.626010,11014.676849,1178.795211
948.520000,465.600000,447.000000,315.000000,-191.000000,1179.000000,-6065.052519,-6268.107876,6768.690482,11040.344616,1169.741489
948.520000,465.600000,447.000000,300.000000,-215.000000,1168.000000,-6079.119566,-6282.870771,6784.329693,11066.042165,1184.751261
948.520000,465.600000,447.000000,294.000000,-209.000000,1176.000000,-6092.864486,-6297.037371,6799.638693,11091.021759,1189.505187
948.520000,465.600000,447.000000,293.000000,-191.000000,1183.000000,-6106.664493,-6310.860114,6815.132965,11115.949979,1184.282918
948.520000,465.600000,447.000000,307.000000,-205.000000,1175.000000,-6120.252529,-6325.064093,6830.552733,11140.932520,1179.506791
948.520000,465.600000,447.000000,305.000000,-208.000000,1168.000000,-6133.841740,-6339.288504,6845.778090,11165.808116,1178.005072
948.520000,465.600000,447.000000,296.000000,-206.000000,1181.000000,-6147.544008,-6353.391432,6861.191356,11190.792056,1189.783556
948.520000,465.600000,447.000000,289.000000,-203.000000,1186.000000,-6161.604315,-6367.645316,6876.946097,11216.267749,1195.037067
948.520000,465.600000,447.000000,302.000000,-196.000000,1168.000000,-6175.126927,-6381.483341,6892.026533,11240.798545,1172.835739
948.520000,465.600000,447.000000,309.000000,-200.000000,1188.000000,-6188.512081,-6395.414349,6907.535663,11265.569466,1183.676556
948.520000,465.600000,447.000000,308.000000,-207.000000,1162.000000,-6202.388306,-6409.985556,6923.025423,11290.961718,1172.126969
948.520000,465.600000,447.000000,307.000000,-205.000000,1179.000000,-6215.803772,-6424.009143,6938.333007,11315.678279,1181.979810
948.520000,465.600000,447.000000,302.000000,-213.000000,1168.000000,-6229.403967,-6438.284173,6953.499963,11340.552835,1182.508804
948.520000,465.600000,447.000000,303.000000,-201.000000,1176.000000,-6244.769279,-6454.151252,6970.852350,11368.640826,1180.039250
948.520000,465.600000,447.000000,300.000000,-194.000000,1188.000000,-6258.382363,-6467.996916,6986.406681,11393.516236,1185.213631
948.520000,465.600000,447.000000,302.000000,-193.000000,1159.000000,-6272.186858,-6482.059343,7001.609305,11418.404186,1165.626900
948.520000,465.600000,447.000000,309.000000,-198.000000,1181.000000,-6285.680090,-6496.060640,7017.095971,11443.260632,1178.179439
948.520000,465.600000,447.000000,298.000000,-195.000000,1157.000000,-6299.340360,-6509.932579,7032.005261,11467.781352,1167.762232
948.520000,465.600000,447.000000,299.000000,-200.000000,1164.000000,-6313.214756,-6524.150461,7047.321098,11492.865371,1174.303449
948.520000,465.600000,447.000000,301.000000,-201.000000,1166.000000,-6327.241335,-6538.590350,7062.896076,11518.317917,1174.988813
948.520000,465.600000,447.000000,293.000000,-192.000000,1178.000000,-6341.551336,-6552.945758,7078.853806,11544.112900,1181.738224
948.520000,465.600000,447.000000,298.000000,-204.000000,1170.000000,-6355.243481,-6567.039499,7094.071510,11568.966162,1180.791866
948.520000,465.600000,447.000000,310.000000,-193.000000,1161.000000,-6368.614729,-6580.831241,7109.023384,11593.308710,1162.436127
948.520000,465.600000,447.000000,297.000000,-204.000000,1166.000000,-6382.555954,-6595.159342,7124.408546,11618.534519,1178.899262
948.520000,465.600000,447.000000,290.000000,-204.000000,1164.000000,-6396.318363,-6609.153312,7139.393129,11643.226802,1181.567497
948.520000,465.600000,447.000000,295.000000,-209.000000,1163.000000,-6410.246181,-6623.530388,7154.652521,11668.395931,1181.029022
948.520000,465.600000,447.000000,296.000000,-191.000000,1176.000000,-6423.953016,-6637.322927,7169.965895,11693.144955,1178.281338
948.520000,465.600000,447.000000,299.000000,-207.000000,1174.000000,-6437.518891,-6651.370851,7185.150017,11717.882250,1184.396889
948.520000,465.600000,447.000000,302.000000,-199.000000,1163.000000,-6451.113914,-6665.346060,7200.206065,11742.515752,1171.467998
948.520000,465.600000,447.000000,303.000000,-203.000000,1178.000000,-6464.575588,-6679.289044,7215.450339,11767.173121,1182.405612
948.520000,465.600000,447.000000,307.000000,-205.000000,1177.000000,-6478.494647,-6693.839052,7231.289149,11792.790887,1180.742254
948.520000,465.600000,447.000000,307.000000,-210.000000,1178.000000,-6491.956944,-6708.016518,7246.629184,11817.640420,1184.206177
948.520000,465.600000,447.000000,295.000000,-197.000000,1186.000000,-6505.659952,-6721.909915,7262.124536,11842.556189,1188.380474
948.520000,465.600000,447.000000,301.000000,-197.000000,1181.000000,-6519.691710,-6736.268457,7278.030316,11868.168266,1181.980080
948.520000,465.600000,447.000000,302.000000,-202.000000,1172.000000,-6532.842573,-6749.848109,7292.777541,11892.143870,1178.686926
948.520000,465.600000,447.000000,302.000000,-211.000000,1174.000000,-6546.103992,-6763.726528,7307.689765,11916.450970,1185.033616
948.520000,465.600000,447.000000,295.000000,-194.000000,1163.000000,-6559.625321,-6777.373652,7322.503805,11940.709356,1172.525714
948.520000,465.600000,447.000000,305.000000,-197.000000,1161.000000,-6573.056226,-6791.202776,7337.405699,11965.075248,1167.455674
948.520000,465.600000,447.000000,304.000000,-214.000000,1178.000000,-6586.283710,-6805.150207,7352.408012,11989.458121,1188.117499
948.520000,465.600000,447.000000,303.000000,-213.000000,1176.000000,-6599.445218,-6818.986183,7367.271593,12013.656415,1186.859314
948.520000,465.600000,447.000000,305.000000,-196.000000,1178.000000,-6612.740341,-6832.654839,7382.374053,12037.979632,1177.367211
948.520000,465.600000,447.000000,300.000000,-204.000000,1168.000000,-6626.169893,-6846.520915,7397.304521,12062.383275,1178.466525
948.520000,465.600000,447.000000,299.000000,-203.000000,1181.000000,-6639.776038,-6860.526748,7412.680353,12087.236372,1186.447719
948.520000,465.600000,447.000000,297.000000,-212.000000,1163.000000,-6653.058576,-6874.340979,7427.277445,12111.325384,1181.641261
948.520000,465.600000,447.000000,299.000000,-212.000000,1169.000000,-6666.659525,-6888.529923,7442.396125,12136.121860,1184.188326
948.520000,465.600000,447.000000,290.000000,-210.000000,1175.000000,-6680.454202,-6902.682392,7457.646269,12161.084673,1191.666040
948.520000,465.600000,447.000000,299.000000,-194.000000,1176.000000,-6693.906411,-6916.343368,7472.744588,12185.487282,1178.299364
948.520000,465.600000,447.000000,296.000000,-196.000000,1188.000000,-6707.885999,-6930.517486,7488.619772,12210.947272,1188.519209
948.520000,465.600000,447.000000,293.000000,-198.000000,1187.000000,-6721.355624,-6944.153139,7503.825292,12235.410833,1190.660082
948.520000,465.600000,447.000000,292.000000,-191.000000,1183.000000,-6738.205866,-6961.005435,7522.715468,12265.816849,1184.836727
948.520000,465.600000,447.000000,310.000000,-212.000000,1161.000000,-6751.964057,-6975.605682,7538.100026,12291.096178,1173.305395
948.520000,465.600000,447.000000,293.000000,-188.000000,1176.000000,-6765.604773,-6989.206444,7553.269787,12315.612008,1178.278588
948.520000,465.600000,447.000000,307.000000,-211.000000,1168.000000,-6778.780310,-7003.102455,7568.077685,12339.817921,1178.633306
948.520000,465.600000,447.000000,309.000000,-196.000000,1169.000000,-6792.163545,-7016.947758,7583.186979,12364.294004,1169.608648
948.520000,465.600000,447.000000,304.000000,-203.000000,1160.000000,-6805.759050,-7031.051207,7598.227001,12388.990712,1170.812107
948.520000,465.600000,447.000000,291.000000,-203.000000,1171.000000,-6819.304620,-7044.825035,7613.142125,12413.396323,1184.708618
948.520000,465.600000,447.000000,291.000000,-205.000000,1175.000000,-6833.430122,-7059.231535,7628.781749,12438.923911,1188.284861
948.520000,465.600000,447.000000,296.000000,-209.000000,1175.000000,-6846.821790,-7073.076351,7643.722493,12463.300977,1187.792705
948.520000,465.600000,447.000000,306.000000,-207.000000,1161.000000,-6860.623120,-7087.523799,7659.059213,12488.487947,1172.611918
948.520000,465.600000,447.000000,306.000000,-204.000000,1172.000000,-6873.762654,-7101.217119,7673.885463,12512.570307,1177.633691
948.520000,465.600000,447.000000,300.000000,-202.000000,1173.000000,-6887.129299,-7114.977022,7688.849049,12536.899445,1180.399911
948.520000,465.600000,447.000000,290.000000,-207.000000,1175.000000,-6900.538083,-7128.672504,7703.672585,12561.129280,1189.967794
948.520000,465.600000,447.000000,297.000000,-204.000000,1179.000000,-6914.254534,-7142.769592,7719.083381,12586.116218,1186.872559
948.520000,465.600000,447.000000,305.000000,-207.000000,1178.000000,-6928.020714,-7157.157852,7734.720933,12611.434789,1183.583436
948.520000,465.600000,447.000000,297.000000,-190.000000,1165.000000,-6942.019924,-7171.244729,7750.148599,12636.581614,1170.390392
948.520000,465.600000,447.000000,309.000000,-198.000000,1174.000000,-6955.431938,-7185.161748,7765.395243,12661.198445,1173.831244
948.520000,465.600000,447.000000,305.000000,-202.000000,1187.000000,-6968.932344,-7199.167328,7780.919703,12686.084489,1186.342173
948.520000,465.600000,447.000000,298.000000,-204.000000,1169.000000,-6982.368834,-7212.997916,7795.832613,12710.461030,1180.179830
948.520000,465.600000,447.000000,297.000000,-203.000000,1175.000000,-6995.719131,-7226.698199,7810.750061,12734.719059,1183.844699
948.520000,465.600000,447.000000,305.000000,-194.000000,1174.000000,-7010.269761,-7241.612415,7827.188258,12761.258108,1173.762817
948.520000,465.600000,447.000000,301.000000,-200.000000,1164.000000,-7024.373394,-7256.109848,7842.805235,12786.811395,1173.198411
948.520000,465.600000,447.000000,293.000000,-198.000000,1159.000000,-7038.238298,-7270.145652,7857.864747,12811.629659,1173.463008
948.520000,465.600000,447.000000,305.000000,-201.000000,1178.000000,-7051.767019,-7284.159584,7873.232560,12836.439922,1180.184117
948.520000,465.600000,447.000000,315.000000,-207.000000,1178.000000,-7065.482727,-7298.721374,7889.058710,12861.944922,1178.176282
948.520000,465.600000,447.000000,301.000000,-197.000000,1180.000000,-7079.143456,-7312.700246,7904.522811,12886.866874,1181.359349
948.520000,465.600000,447.000000,297.000000,-205.000000,1192.000000,-7092.721133,-7326.675550,7920.048611,12911.779028,1195.494739
948.520000,465.600000,447.000000,300.000000,-211.000000,1181.000000,-7106.419173,-7340.966695,7935.552159,12936.922877,1190.429229
948.520000,465.600000,447.000000,305.000000,-199.000000,1177.000000,-7120.052144,-7355.046246,7951.017209,12961.887303,1178.435892
948.520000,465.600000,447.000000,303.000000,-214.000000,1188.000000,-7133.987630,-7369.717451,7967.013917,12987.679760,1194.836068
948.520000,465.600000,447.000000,299.000000,-204.000000,1173.000000,-7147.925030,-7384.085728,7982.592425,13013.044843,1182.081381
948.520000,465.600000,447.000000,313.000000,-195.000000,1177.000000,-7161.377082,-7398.068648,7998.044335,13037.847008,1171.826792
948.520000,465.600000,447.000000,309.000000,-210.000000,1194.000000,-7174.817873,-7412.267733,8013.744034,13062.917664,1193.075937
948.520000,465.600000,447.000000,293.000000,-197.000000,1180.000000,-7188.498576,-7426.096195,8029.041744,13087.663191,1185.763143
948.520000,465.600000,447.000000,302.000000,-205.000000,1168.000000,-7202.129803,-7440.235125,8044.243308,13112.498725,1177.936106
948.520000,465.600000,447.000000,293.000000,-211.000000,1172.000000,-7215.623683,-7454.162936,8059.167433,13136.968825,1188.746832
948.520000,465.600000,447.000000,300.000000,-193.000000,1172.000000,-7229.115493,-7467.864451,8074.250333,13161.406790,1174.715774
948.520000,465.600000,447.000000,297.000000,-201.000000,1157.000000,-7242.725746,-7481.789725,8089.082233,13185.882795,1171.722608
948.520000,465.600000,447.000000,306.000000,-206.000000,1174.000000,-7255.890980,-7495.550809,8103.978463,13210.060665,1180.003182
948.520000,465.600000,447.000000,290.000000,-206.000000,1174.000000,-7269.480199,-7509.409946,8118.980835,13234.592170,1188.791046
948.520000,465.600000,447.000000,304.000000,-200.000000,1180.000000,-7282.625829,-7522.985524,8133.931103,13258.687165,1181.405261
948.520000,465.600000,447.000000,305.000000,-199.000000,1169.000000,-7296.394583,-7537.205306,8149.379015,13283.795243,1173.496975
948.520000,465.600000,447.000000,297.000000,-202.000000,1171.000000,-7310.118852,-7551.268300,8164.630075,13308.669160,1180.823471
948.520000,465.600000,447.000000,288.000000,-194.000000,1171.000000,-7324.026100,-7565.156178,8179.873895,13333.539787,1181.327571
948.520000,465.600000,447.000000,292.000000,-206.000000,1179.000000,-7338.314602,-7579.772880,8195.805143,13359.455080,1190.751473
948.520000,465.600000,447.000000,292.000000,-206.000000,1167.000000,-7352.131065,-7593.906702,8210.957543,13384.359303,1183.412468
948.520000,465.600000,447.000000,296.000000,-204.000000,1163.000000,-7365.903805,-7608.039949,8226.070155,13409.214776,1177.625794
948.520000,465.600000,447.000000,300.000000,-211.000000,1170.000000,-7379.360595,-7622.079399,8241.072405,13433.775773,1183.678483
948.520000,465.600000,447.000000,301.000000,-197.000000,1175.000000,-7393.113272,-7636.152361,8256.534397,13458.800354,1178.263515
948.520000,465.600000,447.000000,290.000000,-202.000000,1159.000000,-7407.168064,-7650.400947,8271.730613,13483.927496,1177.404922
948.520000,465.600000,447.000000,293.000000,-206.000000,1174.000000,-7420.522973,-7664.083454,8286.541784,13508.112789,1187.131850
948.520000,465.600000,447.000000,298.000000,-202.000000,1166.000000,-7433.911325,-7677.823330,8301.339523,13532.340764,1177.211549
948.520000,465.600000,447.000000,309.000000,-212.000000,1169.000000,-7446.942824,-7691.630785,8316.051717,13556.358571,1178.733045
948.520000,465.600000,447.000000,302.000000,-201.000000,1189.000000,-7460.437636,-7705.544727,8331.539483,13581.167086,1188.657928
948.520000,465.600000,447.000000,292.000000,-195.000000,1173.000000,-7473.875944,-7719.066548,8346.399977,13605.337283,1180.883936
948.520000,465.600000,447.000000,286.000000,-198.000000,1173.000000,-7487.523194,-7732.736045,8361.354851,13629.763947,1185.906282
948.520000,465.600000,447.000000,303.000000,-208.000000,1174.000000,-7502.369508,-7748.228171,8378.075124,13656.966384,1182.777253
948.520000,465.600000,447.000000,308.000000,-203.000000,1174.000000,-7516.264309,-7762.732111,8393.845935,13682.503008,1177.208915
948.520000,465.600000,447.000000,292.000000,-207.000000,1186.000000,-7532.339201,-7779.200722,8411.940350,13711.777352,1195.629654
948.520000,465.600000,447.000000,302.000000,-211.000000,1174.000000,-7545.535967,-7793.011481,8426.779874,13735.965929,1185.033616
948.520000,465.600000,447.000000,296.000000,-208.000000,1164.000000,-7559.026165,-7806.937487,8441.603132,13760.371105,1180.511885
948.520000,465.600000,447.000000,309.000000,-208.000000,1184.000000,-7572.202836,-7820.816342,8456.788280,13784.799311,1185.703079
948.520000,465.600000,447.000000,289.000000,-205.000000,1177.000000,-7585.943935,-7834.788293,8471.997830,13809.605360,1190.617903
948.520000,465.600000,447.000000,304.000000,-207.000000,1180.000000,-7599.142415,-7848.561796,8487.008204,13833.878558,1185.363147
948.520000,465.600000,447.000000,298.000000,-191.000000,1170.000000,-7612.499542,-7862.043763,8501.853563,13857.972269,1173.468717
948.520000,465.600000,447.000000,297.000000,-206.000000,1174.000000,-7625.951476,-7875.910289,8516.863932,13882.437467,1184.927791
948.520000,465.600000,447.000000,310.000000,-194.000000,1183.000000,-7639.212898,-7889.609521,8532.149916,13906.872196,1176.637561
948.520000,465.600000,447.000000,306.000000,-193.000000,1180.000000,-7652.441742,-7903.169436,8547.241653,13931.090827,1176.382128
948.520000,465.600000,447.000000,303.000000,-209.000000,1185.000000,-7667.927767,-7919.353090,8564.946273,13959.640907,1190.136644
948.520000,465.600000,447.000000,300.000000,-210.000000,1176.000000,-7681.459785,-7933.450160,8580.157587,13984.404173,1186.783279
948.520000,465.600000,447.000000,297.000000,-204.000000,1164.000000,-7695.008795,-7947.375162,8595.068319,14008.894736,1177.680547
948.520000,465.600000,447.000000,304.000000,-204.000000,1191.000000,-7708.423190,-7961.311546,8610.553191,14033.670078,1190.506695
948.520000,465.600000,447.000000,298.000000,-195.000000,1174.000000,-7722.252595,-7975.355242,8626.008484,14058.716112,1178.175552
948.520000,465.600000,447.000000,308.000000,-194.000000,1177.000000,-7735.314078,-7988.805805,8640.894644,14082.654662,1173.983829
948.520000,465.600000,447.000000,302.000000,-209.000000,1181.000000,-7748.512784,-8002.577764,8655.879254,14106.911316,1188.204221
948.520000,465.600000,447.000000,295.000000,-199.000000,1185.000000,-7761.909291,-8016.201399,8671.007516,14131.280623,1188.875751
948.520000,465.600000,447.000000,296.000000,-209.000000,1171.000000,-7775.138481,-8029.878240,8685.685892,14155.312160,1185.345313
948.520000,465.600000,447.000000,291.000000,-206.000000,1179.000000,-7788.531506,-8043.558060,8700.596000,14179.577569,1191.303114
948.520000,465.600000,447.000000,307.000000,-203.000000,1167.000000,-7801.814819,-8057.402092,8715.504320,14203.874770,1173.445299
948.520000,465.600000,447.000000,296.000000,-209.000000,1175.000000,-7815.340254,-8071.385201,8730.594304,14228.495326,1187.792705
948.520000,465.600000,447.000000,293.000000,-203.000000,1168.000000,-7828.868220,-8085.183099,8745.473581,14252.882919,1181.767080
948.520000,465.600000,447.000000,305.000000,-192.000000,1194.000000,-7842.162700,-8098.768457,8760.905854,14277.361020,1185.143346
948.520000,465.600000,447.000000,300.000000,-200.000000,1172.000000,-7855.293933,-8112.245526,8775.585654,14301.226304,1178.654551
948.520000,465.600000,447.000000,301.000000,-204.000000,1169.000000,-7868.573273,-8125.977683,8790.392430,14325.395552,1178.528876
948.520000,465.600000,447.000000,312.000000,-212.000000,1177.000000,-7881.674764,-8139.924724,8805.418020,14349.723276,1182.031924
948.520000,465.600000,447.000000,296.000000,-205.000000,1188.000000,-7895.071652,-8153.692812,8820.631491,14374.227032,1193.552559
948.520000,465.600000,447.000000,315.000000,-203.000000,1168.000000,-7907.984057,-8167.320217,8835.326913,14398.066989,1169.707036
948.520000,465.600000,447.000000,306.000000,-207.000000,1189.000000,-7921.000869,-8180.946421,8850.359091,14422.170265,1189.868358
948.520000,465.600000,447.000000,296.000000,-206.000000,1161.000000,-7934.555015,-8194.896896,8865.190299,14446.629276,1177.550386
948.520000,465.600000,447.000000,295.000000,-197.000000,1173.000000,-7947.994654,-8208.523265,8880.120489,14470.902290,1180.340269
948.520000,465.600000,447.000000,316.000000,-196.000000,1173.000000,-7960.982819,-8222.108559,8895.028173,14494.890231,1168.277412
948.520000,465.600000,447.000000,299.000000,-199.000000,1160.000000,-7974.735106,-8236.180135,8910.124522,14519.689467,1171.297738
948.520000,465.600000,447.000000,311.000000,-201.000000,1167.000000,-7987.771115,-8249.810772,8924.847082,14543.615802,1170.122776
948.520000,465.600000,447.000000,303.000000,-201.000000,1184.000000,-8001.032678,-8263.505402,8939.988010,14567.959056,1184.998156
948.520000,465.600000,447.000000,303.000000,-198.000000,1169.000000,-8014.256801,-8277.099912,8954.778902,14592.010149,1174.029399
948.520000,465.600000,447.000000,292.000000,-198.000000,1178.000000,-8027.747630,-8290.736228,8969.800221,14616.372848,1185.640953
948.520000,465.600000,447.000000,300.000000,-206.000000,1171.000000,-8041.627904,-8305.110483,8985.295993,14641.659180,1181.440117
948.520000,465.600000,447.000000,299.000000,-215.000000,1170.000000,-8054.872266,-8318.988598,9000.038686,14665.852681,1186.516578
948.520000,465.600000,447.000000,300.000000,-206.000000,1158.000000,-8074.044463,-8338.843109,9021.057979,14700.543712,1173.518534
948.520000,465.600000,447.000000,307.000000,-215.000000,1180.000000,-8087.211661,-8352.812424,9036.102804,14724.931976,1188.298477
948.520000,465.600000,447.000000,291.000000,-205.000000,1180.000000,-8101.118209,-8366.995614,9051.605754,14750.128764,1191.354653
948.520000,465.600000,447.000000,287.000000,-212.000000,1162.000000,-8114.614540,-8380.820009,9066.193184,14774.334909,1186.581422
948.520000,465.600000,447.000000,289.000000,-206.000000,1184.000000,-8128.141955,-8394.595196,9081.309791,14798.854944,1195.484082
948.520000,465.600000,447.000000,308.000000,-212.000000,1168.000000,-8141.298876,-8408.513778,9096.119852,14823.064720,1178.663917
948.520000,465.600000,447.000000,295.000000,-205.000000,1187.000000,-8154.583631,-8422.145735,9111.162572,14847.324889,1193.479263
948.520000,465.600000,447.000000,306.000000,-200.000000,1179.000000,-8168.305930,-8436.360954,9126.795896,14872.518658,1179.694584
948.520000,465.600000,447.000000,303.000000,-198.000000,1170.000000,-8181.511333,-8449.936219,9141.586307,14896.548258,1174.644640
948.520000,465.600000,447.000000,304.000000,-192.000000,1175.000000,-8194.901236,-8463.597859,9156.710507,14920.933023,1173.809095
948.520000,465.600000,447.000000,302.000000,-196.000000,1175.000000,-8208.017834,-8477.020400,9171.480171,14944.814490,1177.151932
948.520000,465.600000,447.000000,301.000000,-199.000000,1183.000000,-8221.271273,-8490.623433,9186.544619,14969.054401,1184.344253
948.520000,465.600000,447.000000,306.000000,-203.000000,1187.000000,-8234.486624,-8504.375198,9201.764939,14993.453420,1186.363313
948.520000,465.600000,447.000000,302.000000,-213.000000,1174.000000,-8247.808169,-8518.357751,9216.744774,15017.894079,1186.176661
948.520000,465.600000,447.000000,307.000000,-199.000000,1179.000000,-8261.137030,-8532.166145,9231.953538,15042.380472,1178.586047
948.520000,465.600000,447.000000,295.000000,-206.000000,1166.000000,-8274.553796,-8545.954093,9246.714608,15066.628784,1181.141799
948.520000,465.600000,447.000000,303.000000,-196.000000,1191.000000,-8287.944462,-8559.678323,9262.148144,15091.239334,1186.569269
948.520000,465.600000,447.000000,305.000000,-199.000000,1170.000000,-8300.998266,-8573.159734,9276.814199,15115.056127,1174.112495
948.520000,465.600000,447.000000,302.000000,-211.000000,1192.000000,-8314.262916,-8587.041536,9292.099364,15139.595793,1196.160805
948.520000,465.600000,447.000000,288.000000,-202.000000,1172.000000,-8327.812163,-8600.736015,9306.971289,15163.931878,1186.423799
948.520000,465.600000,447.000000,304.000000,-195.000000,1185.000000,-8341.020956,-8614.274352,9322.095861,15188.147498,1181.711636
948.520000,465.600000,447.000000,298.000000,-198.000000,1185.000000,-8354.679925,-8628.207961,9337.591647,15213.062381,1186.669807
948.520000,465.600000,447.000000,309.000000,-210.000000,1174.000000,-8367.843165,-8642.113836,9352.555488,15237.362794,1180.656678
948.520000,465.600000,447.000000,302.000000,-200.000000,1170.000000,-8380.965581,-8655.623519,9367.230219,15261.238631,1176.324985
948.520000,465.600000,447.000000,304.000000,-189.000000,1171.000000,-8394.218201,-8669.083404,9382.117107,15285.287949,1169.650884
948.520000,465.600000,447.000000,308.000000,-201.000000,1170.000000,-8407.341175,-8682.740705,9396.929931,15309.332575,1173.605739
948.520000,465.600000,447.000000,308.000000,-203.000000,1186.000000,-8420.916997,-8696.911682,9412.593036,15334.439133,1184.657263
948.520000,465.600000,447.000000,293.000000,-202.000000,1166.000000,-8434.604910,-8710.851837,9427.606475,15359.077562,1179.981877
948.520000,465.600000,447.000000,309.000000,-211.000000,1182.000000,-8447.839776,-8724.854074,9442.817300,15383.623567,1186.169630
948.520000,465.600000,447.000000,302.000000,-193.000000,1163.000000,-8461.156148,-8738.419259,9457.564752,15407.682030,1168.074514
948.520000,465.600000,447.000000,301.000000,-203.000000,1162.000000,-8474.480168,-8752.177041,9472.277307,15431.832504,1173.683565
948.520000,465.600000,447.000000,307.000000,-208.000000,1171.000000,-8487.542156,-8765.892210,9487.018671,15455.832600,1178.753948
948.520000,465.600000,447.000000,307.000000,-200.000000,1206.000000,-8500.910792,-8779.762649,9502.835472,15480.749286,1196.098771
948.520000,465.600000,447.000000,298.000000,-198.000000,1163.000000,-8514.312805,-8793.434136,9517.586504,15504.917262,1173.114330
948.520000,465.600000,447.000000,310.000000,-205.000000,1171.000000,-8527.449077,-8807.230390,9532.481356,15529.098354,1175.409780
948.520000,465.600000,447.000000,287.000000,-200.000000,1155.000000,-8540.963269,-8820.827932,9546.945088,15553.109640,1175.540757
948.520000,465.600000,447.000000,296.000000,-212.000000,1189.000000,-8554.245313,-8834.620480,9562.048498,15577.496698,1198.118571
948.520000,465.600000,447.000000,295.000000,-208.000000,1180.000000,-8567.632670,-8848.419176,9577.064003,15601.891116,1190.846065
948.520000,465.600000,447.000000,318.000000,-194.000000,1185.000000,-8580.546351,-8861.928444,9592.178981,15625.922341,1173.572167
948.520000,465.600000,447.000000,279.000000,-191.000000,1175.000000,-8594.276867,-8875.393997,9607.108805,15650.263673,1187.166623
948.520000,465.600000,447.000000,304.000000,-212.000000,1180.000000,-8607.888485,-8889.704231,9622.589032,15675.356620,1188.207385
948.520000,465.600000,447.000000,304.000000,-202.000000,1158.000000,-8624.433313,-8906.841523,9640.840402,15705.364674,1169.023862
948.520000,465.600000,447.000000,310.000000,-198.000000,1171.000000,-8637.549791,-8920.473194,9655.712810,15729.427779,1171.430216
948.520000,465.600000,447.000000,315.000000,-199.000000,1171.000000,-8650.567993,-8934.130060,9670.590286,15753.454320,1169.280441
948.520000,465.600000,447.000000,292.000000,-212.000000,1168.000000,-8664.024027,-8948.018149,9685.367902,15777.791117,1187.434744
948.520000,465.600000,447.000000,301.000000,-196.000000,1167.000000,-8677.293655,-8961.576318,9700.122862,15801.824540,1172.773086
948.520000,465.600000,447.000000,301.000000,-210.000000,1170.000000,-8690.593068,-8975.452466,9714.972559,15826.112810,1182.559305
948.520000,465.600000,447.000000,301.000000,-197.000000,1174.000000,-8703.718298,-8988.883368,9729.708849,15849.983303,1177.645919
948.520000,465.600000,447.000000,300.000000,-195.000000,1175.000000,-8717.089484,-9002.503619,9744.718753,15874.264205,1177.690346
948.520000,465.600000,447.000000,296.000000,-199.000000,1172.000000,-8730.451788,-9016.113298,9759.565303,15898.433958,1180.296789
948.520000,465.600000,447.000000,278.000000,-200.000000,1164.000000,-8744.229633,-9029.790047,9774.298219,15922.800188,1186.047820
948.520000,465.600000,447.000000,303.000000,-199.000000,1176.000000,-8757.505397,-9043.458210,9789.290833,15947.045250,1178.910612
948.520000,465.600000,447.000000,303.000000,-211.000000,1164.000000,-8770.743722,-9057.333923,9803.995069,15971.210428,1178.377117
948.520000,465.600000,447.000000,289.000000,-203.000000,1181.000000,-8784.315984,-9071.093043,9819.100055,15995.738875,1191.951589
948.520000,465.600000,447.000000,302.000000,-197.000000,1184.000000,-8798.217457,-9085.340268,9834.947029,16021.180395,1183.298724
948.520000,465.600000,447.000000,306.000000,-212.000000,1163.000000,-8811.349280,-9099.189057,9849.580637,16045.228460,1176.702898
948.520000,465.600000,447.000000,294.000000,-204.000000,1183.000000,-8824.805557,-9112.955363,9864.712061,16069.713520,1190.989752
948.520000,465.600000,447.000000,299.000000,-202.000000,1181.000000,-8838.152544,-9126.673875,9879.795027,16094.081713,1185.884476
948.520000,465.600000,447.000000,301.000000,-216.000000,1170.000000,-8851.380730,-9140.598282,9894.565194,16118.309407,1185.997348
948.520000,465.600000,447.000000,291.000000,-206.000000,1185.000000,-8865.197197,-9154.710613,9910.072788,16143.419415,1194.999209
948.520000,465.600000,447.000000,306.000000,-201.000000,1179.000000,-8878.311673,-9168.316585,9925.013640,16167.508866,1180.259086
948.520000,465.600000,447.000000,299.000000,-200.000000,1168.000000,-8891.821689,-9182.161065,9940.010440,16191.985126,1176.750012
948.520000,465.600000,447.000000,292.000000,-205.000000,1170.000000,-8905.350597,-9195.980119,9954.909301,16216.397220,1184.673740
948.520000,465.600000,447.000000,295.000000,-205.000000,1176.000000,-8918.790236,-9209.771008,9969.901186,16240.801426,1186.690250
948.520000,465.600000,447.000000,302.000000,-208.000000,1173.000000,-8932.108548,-9223.647168,9984.856786,16265.165084,1182.709208
948.520000,465.600000,447.000000,299.000000,-216.000000,1147.000000,-8945.365900,-9237.559306,9999.144486,16289.105668,1173.224101
948.520000,465.600000,447.000000,302.000000,-196.000000,1183.000000,-8958.624086,-9251.126737,10014.237638,16313.345668,1182.116183
948.520000,465.600000,447.000000,303.000000,-200.000000,1182.000000,-8971.799149,-9264.711633,10029.238988,16337.493574,1183.192474
948.520000,465.600000,447.000000,296.000000,-207.000000,1176.000000,-8985.149056,-9278.472357,10044.153599,16361.783960,1187.271709
948.520000,465.600000,447.000000,297.000000,-207.000000,1181.000000,-8998.266760,-9292.014485,10058.931955,16385.739225,1189.800433
948.520000,465.600000,447.000000,300.000000,-216.000000,1178.000000,-9011.630811,-9306.060216,10073.995672,16410.290534,1191.435164
948.520000,465.600000,447.000000,300.000000,-205.000000,1173.000000,-9024.910555,-9319.792092,10088.861974,16434.496375,1182.099213
948.520000,465.600000,447.000000,293.000000,-195.000000,1165.000000,-9038.261531,-9333.246533,10103.485480,16458.434955,1175.424532
948.520000,465.600000,447.000000,300.000000,-197.000000,1188.000000,-9051.468641,-9346.740382,10118.575945,16482.603540,1186.885820
948.520000,465.600000,447.000000,307.000000,-206.000000,1164.000000,-9064.436326,-9360.316104,10133.069383,16506.320565,1173.321555
948.520000,465.600000,447.000000,303.000000,-210.000000,1180.000000,-9077.620427,-9374.114558,10148.040175,16530.575784,1187.611229
948.520000,465.600000,447.000000,289.000000,-201.000000,1181.000000,-9091.061444,-9387.699866,10162.999095,16554.843930,1190.830882
948.520000,465.600000,447.000000,304.000000,-210.000000,1171.000000,-9104.189028,-9401.460487,10177.745527,16578.908925,1181.531798
948.520000,465.600000,447.000000,301.000000,-220.000000,1156.000000,-9117.658739,-9415.722338,10192.494145,16603.447380,1179.834950
948.520000,465.600000,447.000000,300.000000,-209.000000,1170.000000,-9130.752357,-9429.342512,10207.091515,16627.322575,1182.536406
948.520000,465.600000,447.000000,308.000000,-218.000000,1170.000000,-9143.835619,-9443.305726,10221.859513,16651.491367,1183.344341
948.520000,465.600000,447.000000,292.000000,-214.000000,1168.000000,-9157.306753,-9457.250438,10236.653712,16675.878748,1188.577162
948.520000,465.600000,447.000000,276.000000,-209.000000,1170.000000,-9171.005313,-9470.991366,10251.380499,16700.234071,1195.866761
948.520000,465.600000,447.000000,304.000000,-198.000000,1189.000000,-9184.484159,-9484.869233,10266.897945,16725.031750,1185.889957
948.520000,465.600000,447.000000,303.000000,-201.000000,1185.000000,-9197.630174,-9498.444542,10281.927315,16749.175467,1185.620357
948.520000,465.600000,447.000000,304.000000,-204.000000,1170.000000,-9210.804163,-9512.131166,10296.705435,16773.243439,1177.497002
948.520000,465.600000,447.000000,297.000000,-208.000000,1164.000000,-9224.080186,-9525.857113,10311.315744,16797.286727,1179.959436
948.520000,465.600000,447.000000,307.000000,-210.000000,1180.000000,-9237.310895,-9539.790687,10326.433136,16821.734162,1185.441804
948.520000,465.600000,447.000000,294.000000,-203.000000,1175.000000,-9250.512563,-9553.276349,10341.116896,16845.645441,1185.498372
948.520000,465.600000,447.000000,311.000000,-212.000000,1180.000000,-9263.541559,-9567.124460,10356.097217,16869.849502,1184.424970
948.520000,465.600000,447.000000,282.000000,-202.000000,1172.000000,-9277.393178,-9580.998524,10371.164167,16894.573184,1189.774630
948.520000,465.600000,447.000000,311.000000,-206.000000,1187.000000,-9290.367347,-9594.666255,10386.223907,16918.693597,1185.359992
948.520000,465.600000,447.000000,292.000000,-205.000000,1176.000000,-9303.848986,-9608.437026,10401.193922,16943.096028,1188.345013
948.520000,465.600000,447.000000,309.000000,-212.000000,1160.000000,-9316.713570,-9622.067628,10415.536630,16966.695036,1173.241915
948.520000,465.600000,447.000000,306.000000,-195.000000,1187.000000,-9332.060803,-9637.846719,10433.212270,16994.921785,1181.873221
948.520000,465.600000,447.000000,312.000000,-209.000000,1167.000000,-9345.108190,-9651.674670,10447.970830,17018.988380,1174.156238
948.520000,465.600000,447.000000,301.000000,-199.000000,1171.000000,-9358.548115,-9665.469108,10462.998174,17043.416520,1176.924513
948.520000,465.600000,447.000000,301.000000,-216.000000,1174.000000,-9372.067037,-9679.699553,10478.176480,17068.227978,1188.440032
948.520000,465.600000,447.000000,309.000000,-214.000000,1169.000000,-9384.977028,-9693.418638,10492.751494,17092.044717,1179.883889
948.520000,465.600000,447.000000,300.000000,-200.000000,1169.000000,-9399.354067,-9708.174324,10508.757512,17118.133369,1176.811604
948.520000,465.600000,447.000000,302.000000,-216.000000,1172.000000,-9412.430581,-9721.960366,10523.421362,17142.134055,1186.672520
948.520000,465.600000,447.000000,299.000000,-200.000000,1172.000000,-9425.660654,-9735.517972,10538.188887,17166.153150,1179.205067
948.520000,465.600000,447.000000,300.000000,-196.000000,1143.000000,-9439.260118,-9749.391724,10552.784007,17190.448536,1158.753102
948.520000,465.600000,447.000000,308.000000,-213.000000,1192.000000,-9452.325445,-9763.233807,10567.980517,17214.801855,1194.063998
948.520000,465.600000,447.000000,287.000000,-199.000000,1144.000000,-9465.856175,-9776.827535,10582.236955,17238.692780,1168.379592
948.520000,465.600000,447.000000,295.000000,-207.000000,1168.000000,-9479.189944,-9790.550593,10596.947518,17262.827683,1182.928633
948.520000,465.600000,447.000000,298.000000,-200.000000,1195.000000,-9492.439085,-9804.106868,10612.182034,17287.143164,1194.028321
948.520000,465.600000,447.000000,293.000000,-195.000000,1144.000000,-9505.676000,-9817.446364,10626.256555,17310.616907,1162.715713
948.520000,465.600000,447.000000,294.000000,-210.000000,1184.000000,-9519.040644,-9831.241441,10641.305358,17335.017241,1194.989870
948.520000,465.600000,447.000000,276.000000,-201.000000,1173.000000,-9532.753999,-9844.834081,10656.109224,17359.343901,1193.195169
948.520000,465.600000,447.000000,302.000000,-195.000000,1184.000000,-9545.981152,-9858.349297,10671.187507,17383.528117,1182.179965
948.520000,465.600000,447.000000,299.000000,-213.000000,1178.000000,-9559.449599,-9872.420746,10686.345523,17408.209231,1190.266857
948.520000,465.600000,447.000000,291.000000,-205.000000,1185.000000,-9572.772926,-9886.009114,10701.299617,17432.411514,1194.437487
948.520000,465.600000,447.000000,301.000000,-214.000000,1167.000000,-9585.970031,-9899.860042,10715.973937,17456.521638,1183.020841
948.520000,465.600000,447.000000,307.000000,-198.000000,1166.000000,-9599.101304,-9913.443270,10730.691148,17480.470126,1169.988833
948.520000,465.600000,447.000000,301.000000,-210.000000,1177.000000,-9612.411725,-9927.330904,10745.697028,17504.866828,1186.851933
948.520000,465.600000,447.000000,291.000000,-199.000000,1174.000000,-9626.305123,-9941.373902,10761.058538,17529.890080,1184.295027
948.520000,465.600000,447.000000,296.000000,-201.000000,1184.000000,-9639.523873,-9954.877884,10775.988684,17553.972380,1188.825854
948.520000,465.600000,447.000000,293.000000,-208.000000,1169.000000,-9652.951545,-9968.675907,10790.778132,17578.249786,1185.211977
948.520000,465.600000,447.000000,304.000000,-196.000000,1183.000000,-9666.112643,-9982.185779,10805.807252,17602.364526,1181.023535
948.520000,465.600000,447.000000,293.000000,-217.000000,1170.000000,-9679.480007,-9996.105358,10820.550668,17626.649491,1190.956855
948.520000,465.600000,447.000000,302.000000,-202.000000,1175.000000,-9692.996801,-10010.062871,10835.770964,17651.330773,1180.534570
948.520000,465.600000,447.000000,300.000000,-200.000000,1170.000000,-9706.070964,-10023.481367,10850.346644,17675.067597,1177.425391
948.520000,465.600000,447.000000,307.000000,-205.000000,1158.000000,-9719.231747,-10037.238726,10864.932809,17699.050594,1169.090788
948.520000,465.600000,447.000000,302.000000,-198.000000,1176.000000,-9732.500923,-10050.858453,10879.894805,17723.245775,1178.895275
948.520000,465.600000,447.000000,295.000000,-194.000000,1162.000000,-9745.785678,-10064.266801,10894.429325,17747.067224,1171.915334
948.520000,465.600000,447.000000,295.000000,-215.000000,1173.000000,-9759.099841,-10078.132665,10909.220123,17771.321600,1190.538009
948.520000,465.600000,447.000000,303.000000,-192.000000,1183.000000,-9772.194860,-10091.472739,10924.150619,17795.243217,1179.334486
948.520000,465.600000,447.000000,304.000000,-202.000000,1179.000000,-9785.321154,-10105.069080,10939.058531,17819.313476,1181.913614
948.520000,465.600000,447.000000,294.000000,-201.000000,1185.000000,-9798.755831,-10118.751712,10954.206719,17843.749519,1190.544409
948.520000,465.600000,447.000000,298.000000,-205.000000,1171.000000,-9812.072626,-10132.479565,10969.027723,17867.945616,1181.971502
948.520000,465.600000,447.000000,295.000000,-209.000000,1162.000000,-9825.359995,-10146.195532,10983.565103,17891.944700,1180.423039
948.520000,465.600000,447.000000,295.000000,-201.000000,1171.000000,-9838.661741,-10159.763508,10998.301399,17915.989871,1181.363598
948.520000,465.600000,447.000000,306.000000,-197.000000,1183.000000,-9851.810270,-10173.322955,11013.362903,17940.145706,1180.494265
948.520000,465.600000,447.000000,301.000000,-196.000000,1175.000000,-9865.100618,-10186.902295,11028.305103,17964.317466,1177.701452
948.520000,465.600000,447.000000,303.000000,-191.000000,1180.000000,-9878.289883,-10200.317946,11043.281759,17988.362049,1176.906381
948.520000,465.600000,447.000000,303.000000,-206.000000,1175.000000,-9891.335197,-10213.890310,11057.993911,18012.254067,1182.254892
948.520000,465.600000,447.000000,295.000000,-199.000000,1174.000000,-9904.727782,-10227.509958,11072.892322,18036.477947,1182.078910
948.520000,465.600000,447.000000,300.000000,-219.000000,1164.000000,-9918.062002,-10241.586019,11087.634559,18060.832709,1184.628360
948.520000,465.600000,447.000000,301.000000,-200.000000,1176.000000,-9931.345874,-10255.240803,11102.589994,18085.051821,1180.570417
948.520000,465.600000,447.000000,297.000000,-203.000000,1176.000000,-9945.041476,-10269.295443,11117.914303,18109.950229,1184.459907
948.520000,465.600000,447.000000,307.000000,-208.000000,1181.000000,-9958.568567,-10283.498973,11133.391427,18134.934345,1184.922306
948.520000,465.600000,447.000000,302.000000,-209.000000,1187.000000,-9972.072430,-10297.589343,11148.847807,18159.828806,1191.919993
948.520000,465.600000,447.000000,294.000000,-200.000000,1187.000000,-9985.519544,-10311.264095,11164.051107,18184.301056,1191.226171
948.520000,465.600000,447.000000,300.000000,-201.000000,1190.000000,-9998.753243,-10324.866735,11179.212765,18208.589664,1190.370846
948.520000,465.600000,447.000000,301.000000,-197.000000,1175.000000,-10012.335622,-10338.765432,11194.483293,18233.304458,1178.263515
948.520000,465.600000,447.000000,302.000000,-195.000000,1170.000000,-10025.564715,-10352.282629,11209.277319,18257.316383,1173.503076
948.520000,465.600000,447.000000,302.000000,-202.000000,1182.000000,-10038.770532,-10365.919027,11224.290429,18281.517626,1184.864073
948.520000,465.600000,447.000000,305.000000,-200.000000,1170.000000,-10051.925368,-10379.525222,11239.069995,18305.530361,1174.678829
948.520000,465.600000,447.000000,299.000000,-200.000000,1175.000000,-10065.148296,-10393.075507,11253.890619,18329.573993,1181.051900
948.520000,465.600000,447.000000,299.000000,-209.000000,1173.000000,-10078.340697,-10406.777308,11268.636405,18353.640826,1184.920837
948.520000,465.600000,447.000000,299.000000,-196.000000,1169.000000,-10091.629876,-10420.313644,11283.408525,18377.683149,1175.106289
948.520000,465.600000,447.000000,283.000000,-207.000000,1178.000000,-10105.181860,-10434.009797,11298.293878,18402.029927,1195.687514
948.520000,465.600000,447.000000,292.000000,-197.000000,1168.000000,-10118.462603,-10447.413533,11312.878987,18425.877616,1178.939469
948.520000,465.600000,447.000000,298.000000,-199.000000,1174.000000,-10131.760533,-10460.999286,11327.740321,18450.007543,1180.422988
948.520000,465.600000,447.000000,296.000000,-208.000000,1172.000000,-10144.887930,-10474.550771,11342.325871,18473.855069,1185.387831
948.520000,465.600000,447.000000,300.000000,-204.000000,1177.000000,-10158.141733,-10488.235386,11357.244881,18498.052229,1183.994236
948.520000,465.600000,447.000000,294.000000,-197.000000,1173.000000,-10171.511613,-10501.770316,11372.074883,18522.173615,1180.894233
948.520000,465.600000,447.000000,303.000000,-203.000000,1174.000000,-10184.695068,-10515.425134,11386.922404,18546.271356,1179.936876
948.520000,465.600000,447.000000,290.000000,-194.000000,1188.000000,-10198.466697,-10529.219349,11402.418937,18571.169610,1190.714806
948.520000,465.600000,447.000000,299.000000,-195.000000,1183.000000,-10211.646757,-10542.624244,11417.353849,18595.177449,1183.200993
948.520000,465.600000,447.000000,288.000000,-190.000000,1181.000000,-10225.106173,-10555.983405,11432.310567,18619.326164,1185.265384
948.520000,465.600000,447.000000,296.000000,-190.000000,1150.000000,-10238.463910,-10569.404193,11446.701680,18643.106704,1161.810101
948.520000,465.600000,447.000000,310.000000,-204.000000,1171.000000,-10251.497380,-10583.072068,11461.479968,18667.086971,1174.839542
948.520000,465.600000,447.000000,310.000000,-197.000000,1185.000000,-10264.682818,-10596.754758,11476.719668,18691.442403,1179.572190
948.520000,465.600000,447.000000,294.000000,-205.000000,1184.000000,-10277.962374,-10610.360561,11491.672661,18715.629895,1192.170202
948.520000,465.600000,447.000000,299.000000,-209.000000,1170.000000,-10291.186602,-10624.095417,11506.392941,18739.717277,1183.085115
948.520000,465.600000,447.000000,313.000000,-206.000000,1191.000000,-10304.116892,-10637.759791,11521.530365,18763.859417,1186.789042
948.520000,465.600000,447.000000,294.000000,-196.000000,1161.000000,-10317.420665,-10651.207473,11536.043129,18787.700255,1172.990618
948.520000,465.600000,447.000000,305.000000,-196.000000,1170.000000,-10330.832265,-10664.995878,11551.111172,18812.134426,1172.416970
948.520000,465.600000,447.000000,293.000000,-203.000000,1163.000000,-10344.278947,-10678.710870,11565.798480,18836.312464,1178.723220
948.520000,465.600000,447.000000,305.000000,-203.000000,1168.000000,-10357.408686,-10692.352316,11580.509043,18860.289033,1175.153160
948.520000,465.600000,447.000000,304.000000,-202.000000,1155.000000,-10370.580096,-10705.995389,11594.977731,18884.140896,1167.201692
948.520000,465.600000,447.000000,292.000000,-193.000000,1200.000000,-10384.184504,-10719.642899,11610.581397,18908.929955,1196.570713
948.520000,465.600000,447.000000,293.000000,-203.000000,1169.000000,-10397.438463,-10733.161322,11625.179515,18932.835955,1182.377448
948.520000,465.600000,447.000000,324.000000,-203.000000,1174.000000,-10410.205525,-10746.829512,11640.041576,18956.721539,1168.580417
948.520000,465.600000,447.000000,294.000000,-203.000000,1180.000000,-10423.549224,-10760.460260,11654.985247,18980.952677,1188.575362
948.520000,465.600000,447.000000,294.000000,-199.000000,1171.000000,-10436.911250,-10774.028069,11669.765707,19005.057983,1180.790240
948.520000,465.600000,447.000000,311.000000,-202.000000,1170.000000,-10449.907733,-10787.637763,11684.504785,19028.960880,1172.540196
948.520000,465.600000,447.000000,298.000000,-211.000000,1167.000000,-10463.115891,-10801.375449,11699.123665,19052.978777,1182.947095
948.520000,465.600000,447.000000,308.000000,-206.000000,1179.000000,-10476.214525,-10815.109669,11714.093065,19077.149794,1182.005258
948.520000,465.600000,447.000000,298.000000,-192.000000,1191.000000,-10489.549534,-10828.589811,11729.344321,19101.479653,1187.076253
948.520000,465.600000,447.000000,301.000000,-199.000000,1182.000000,-10505.764083,-10845.232060,11747.749456,19131.120058,1183.723072
948.520000,465.600000,447.000000,292.000000,-193.000000,1195.000000,-10519.359299,-10858.870349,11763.239040,19155.828826,1193.430547
948.520000,465.600000,447.000000,298.000000,-203.000000,1175.000000,-10532.652025,-10872.532521,11778.114992,19180.008208,1183.294651
948.520000,465.600000,447.000000,297.000000,-195.000000,1151.000000,-10545.965836,-10886.031882,11792.501232,19203.806155,1164.683077
948.520000,465.600000,447.000000,304.000000,-206.000000,1167.000000,-10559.065705,-10899.682152,11807.135232,19227.724305,1176.797600
948.520000,465.600000,447.000000,318.000000,-208.000000,1171.000000,-10571.982538,-10913.481522,11821.967096,19251.747965,1172.803662
948.520000,465.600000,447.000000,297.000000,-201.000000,1171.000000,-10585.149757,-10926.953508,11836.599136,19275.600832,1180.258391
948.520000,465.600000,447.000000,302.000000,-201.000000,1182.000000,-10598.142869,-10940.350168,11851.370431,19299.400902,1184.300921
948.520000,465.600000,447.000000,298.000000,-212.000000,1180.000000,-10611.466169,-10954.228094,11866.383004,19323.803274,1191.472631
948.520000,465.600000,447.000000,292.000000,-195.000000,1168.000000,-10624.849329,-10967.694425,11881.080589,19347.811768,1177.816569
948.520000,465.600000,447.000000,292.000000,-194.000000,1167.000000,-10638.251529,-10981.159499,11895.778669,19371.830313,1176.643816
948.520000,465.600000,447.000000,305.000000,-203.000000,1192.000000,-10651.345230,-10994.763503,11910.937184,19396.040944,1190.028970
948.520000,465.600000,447.000000,290.000000,-208.000000,1161.000000,-10665.506044,-11009.248598,11926.291040,19421.456995,1182.024344
948.520000,465.600000,447.000000,305.000000,-203.000000,1172.000000,-10678.543759,-11022.794434,11940.979540,19445.315279,1177.611545
948.520000,465.600000,447.000000,305.000000,-204.000000,1182.000000,-10691.746216,-11036.531947,11956.058800,19469.612646,1184.359384
948.520000,465.600000,447.000000,293.000000,-201.000000,1175.000000,-10705.150944,-11050.163251,11970.945672,19493.842743,1184.924483
948.520000,465.600000,447.000000,304.000000,-197.000000,1164.000000,-10718.150268,-11063.527230,11985.406845,19517.437259,1169.843490
948.520000,465.600000,447.000000,302.000000,-200.000000,1163.000000,-10731.345095,-11077.111460,12000.019689,19541.357127,1172.035610
948.520000,465.600000,447.000000,312.000000,-208.000000,1174.000000,-10744.211710,-11090.727611,12014.715267,19565.165656,1177.889498
948.520000,465.600000,447.000000,288.000000,-204.000000,1183.000000,-10757.747746,-11104.449724,12029.798115,19589.639683,1194.297631
948.520000,465.600000,447.000000,301.000000,-202.000000,1182.000000,-10771.304873,-11118.427265,12045.186810,19614.457902,1185.410018
948.520000,465.600000,447.000000,304.000000,-198.000000,1180.000000,-10784.353825,-11131.862510,12060.027128,19638.352902,1180.279624
948.520000,465.600000,447.000000,308.000000,-193.000000,1173.000000,-10797.501779,-11145.381593,12074.929730,19662.388041,1170.938013
948.520000,465.600000,447.000000,305.000000,-203.000000,1166.000000,-10810.671415,-11159.064492,12089.644065,19686.412329,1173.927149
948.520000,465.600000,447.000000,297.000000,-196.000000,1171.000000,-10823.983272,-11172.582303,12104.436833,19710.469305,1177.441663
948.520000,465.600000,447.000000,296.000000,-204.000000,1169.000000,-10837.720123,-11186.678722,12119.636377,19735.337448,1181.283417
948.520000,465.600000,447.000000,312.000000,-202.000000,1175.000000,-10850.633841,-11200.222991,12134.406041,19759.176596,1175.087856
948.520000,465.600000,447.000000,292.000000,-203.000000,1172.000000,-10863.999932,-11213.835018,12149.166316,19783.296805,1184.765576
948.520000,465.600000,447.000000,304.000000,-196.000000,1178.000000,-10877.124292,-11227.307179,12164.051669,19807.281801,1177.914084
948.520000,465.600000,447.000000,297.000000,-209.000000,1175.000000,-10890.447876,-11241.102749,12178.939269,19831.560898,1187.243644
948.520000,465.600000,447.000000,299.000000,-209.000000,1188.000000,-10903.659113,-11254.824113,12194.011209,19855.849446,1194.170168
948.520000,465.600000,447.000000,297.000000,-203.000000,1176.000000,-10917.010713,-11268.525733,12208.950606,19880.122484,1184.459907
948.520000,465.600000,447.000000,294.000000,-206.000000,1177.000000,-10930.373393,-11282.237118,12223.854286,19904.385208,1188.420376
948.520000,465.600000,447.000000,289.000000,-201.000000,1175.000000,-10943.881681,-11295.890420,12238.765182,19928.699401,1187.142026
948.520000,465.600000,447.000000,291.000000,-196.000000,1185.000000,-10957.289172,-11309.381105,12253.813740,19952.950612,1189.407882
948.520000,465.600000,447.000000,298.000000,-197.000000,1179.000000,-10970.407558,-11322.743097,12268.575252,19976.793835,1182.387005
948.520000,465.600000,447.000000,301.000000,-200.000000,1163.000000,-10983.622794,-11336.327327,12283.188096,20000.724905,1172.587528
948.520000,465.600000,447.000000,289.000000,-202.000000,1173.000000,-10997.084257,-11349.953711,12298.006482,20024.941318,1186.478989
948.520000,465.600000,447.000000,296.000000,-212.000000,1166.000000,-11010.412630,-11363.794368,12312.692776,20049.124971,1184.012293
948.520000,465.600000,447.000000,310.000000,-184.000000,1171.000000,-11023.426306,-11377.033866,12327.448620,20072.837781,1163.556595
948.520000,465.600000,447.000000,300.000000,-203.000000,1168.000000,-11036.486850,-11390.498801,12341.968839,20096.559401,1177.898616
948.520000,465.600000,447.000000,296.000000,-202.000000,1174.000000,-11049.963346,-11404.286744,12356.983570,20120.996224,1183.216426
948.520000,465.600000,447.000000,290.000000,-201.000000,1172.000000,-11063.231207,-11417.717401,12371.590870,20144.865749,1184.748560
948.520000,465.600000,447.000000,315.000000,-204.000000,1167.000000,-11076.238006,-11431.464959,12386.373190,20168.879004,1169.663093
948.520000,465.600000,447.000000,297.000000,-202.000000,1170.000000,-11089.910153,-11445.474545,12401.545345,20193.645577,1180.210604
948.520000,465.600000,447.000000,281.000000,-211.000000,1182.000000,-11103.532234,-11459.281921,12416.544490,20218.163796,1201.497195
948.520000,465.600000,447.000000,291.000000,-205.000000,1175.000000,-11116.998901,-11473.016479,12431.454658,20242.500750,1188.284861
948.520000,465.600000,447.000000,305.000000,-215.000000,1174.000000,-11130.108690,-11486.881663,12446.265102,20266.654504,1185.691086
948.520000,465.600000,447.000000,304.000000,-199.000000,1172.000000,-11143.253031,-11500.435515,12461.050752,20290.635549,1175.892933
948.520000,465.600000,447.000000,307.000000,-205.000000,1170.000000,-11156.578043,-11514.364548,12476.068185,20315.070808,1176.427333
948.520000,465.600000,447.000000,302.000000,-195.000000,1172.000000,-11169.576328,-11527.645911,12490.644310,20338.688523,1174.736341
948.520000,465.600000,447.000000,300.000000,-194.000000,1174.000000,-11182.865800,-11541.162434,12505.541994,20362.796919,1176.511517
948.520000,465.600000,447.000000,296.000000,-212.000000,1178.000000,-11196.143929,-11554.950916,12520.417113,20387.039369,1191.337530
948.520000,465.600000,447.000000,295.000000,-198.000000,1188.000000,-11209.465934,-11568.478402,12535.522398,20411.299343,1190.182486
948.520000,465.600000,447.000000,296.000000,-209.000000,1169.000000,-11222.773427,-11582.236195,12550.246866,20435.448002,1184.124787
948.520000,465.600000,447.000000,300.000000,-203.000000,1179.000000,-11235.929304,-11595.799414,12565.096218,20459.479816,1184.663729
948.520000,465.600000,447.000000,293.000000,-208.000000,1171.000000,-11249.300601,-11609.539507,12579.864370,20483.680312,1186.431385
948.520000,465.600000,447.000000,282.000000,-197.000000,1159.000000,-11262.960262,-11623.118831,12594.456098,20507.839711,1179.080858
948.520000,465.600000,447.000000,300.000000,-201.000000,1184.000000,-11276.247140,-11636.776132,12609.555754,20532.150511,1186.635054
948.520000,465.600000,447.000000,306.000000,-203.000000,1170.000000,-11289.216406,-11650.271823,12624.149509,20555.884594,1175.834559
948.520000,465.600000,447.000000,300.000000,-199.000000,1171.000000,-11302.514957,-11663.900111,12638.995853,20580.029794,1177.474989
948.520000,465.600000,447.000000,310.000000,-195.000000,1173.000000,-11315.579715,-11677.416647,12653.850539,20603.988383,1170.972310
948.520000,465.600000,447.000000,286.000000,-207.000000,1161.000000,-11329.062659,-11691.104730,12668.381153,20628.074839,1183.688942
948.520000,465.600000,447.000000,317.000000,-206.000000,1176.000000,-11342.382047,-11705.269446,12683.756492,20652.860384,1175.289356
948.520000,465.600000,447.000000,302.000000,-208.000000,1165.000000,-11355.426235,-11718.859999,12698.242860,20676.623428,1177.815380
948.520000,465.600000,447.000000,306.000000,-210.000000,1174.000000,-11368.572194,-11732.682775,12713.117280,20700.812298,1182.284361
948.520000,465.600000,447.000000,285.000000,-201.000000,1181.000000,-11382.055584,-11746.228754,12728.032894,20725.054900,1193.050858
948.520000,465.600000,447.000000,296.000000,-210.000000,1170.000000,-11395.368950,-11760.013021,12742.784263,20749.238312,1185.304480
948.520000,465.600000,447.000000,300.000000,-205.000000,1186.000000,-11409.062449,-11774.172740,12758.388248,20774.366906,1190.127535
948.520000,465.600000,447.000000,301.000000,-197.000000,1168.000000,-11422.174729,-11787.590390,12772.988498,20798.139289,1173.951409
948.520000,465.600000,447.000000,289.000000,-195.000000,1171.000000,-11435.671806,-11801.109569,12787.805158,20822.313451,1181.327639
948.520000,465.600000,447.000000,284.000000,-195.000000,1171.000000,-11449.189472,-11814.547494,12802.532766,20846.398184,1184.126341
948.520000,465.600000,447.000000,296.000000,-195.000000,1164.000000,-11465.792191,-11831.355800,12820.776114,20876.246569,1173.142664
948.520000,465.600000,447.000000,305.000000,-206.000000,1172.000000,-11478.876240,-11845.010771,12835.516814,20900.224204,1179.317409
948.520000,465.600000,447.000000,292.000000,-196.000000,1176.000000,-11492.267278,-11858.505427,12850.386227,20924.358636,1183.289513
948.520000,465.600000,447.000000,308.000000,-200.000000,1193.000000,-11505.449820,-11872.204140,12865.739653,20948.791457,1187.352193
948.520000,465.600000,447.000000,301.000000,-212.000000,1185.000000,-11518.655343,-11886.023115,12880.790425,20973.119185,1192.924101
948.520000,465.600000,447.000000,305.000000,-202.000000,1160.000000,-11531.725234,-11899.582071,12895.271455,20996.875154,1169.690878
948.520000,465.600000,447.000000,295.000000,-208.000000,1166.000000,-11544.971431,-11913.235269,12909.844866,21020.838099,1182.280149
948.520000,465.600000,447.000000,293.000000,-201.000000,1173.000000,-11558.412213,-11926.903235,12924.730770,21045.108200,1183.696765
948.520000,465.600000,447.000000,307.000000,-207.000000,1164.000000,-11571.503712,-11940.628984,12939.362589,21069.063170,1173.894233
948.520000,465.600000,447.000000,302.000000,-205.000000,1164.000000,-11584.706297,-11954.323306,12954.004446,21093.067507,1175.492012
948.520000,465.600000,447.000000,304.000000,-211.000000,1173.000000,-11598.364320,-11968.661137,12969.389112,21118.142869,1183.329874
948.520000,465.600000,447.000000,288.000000,-196.000000,1156.000000,-11611.678422,-11981.997008,12983.680425,21141.790024,1173.321026
948.520000,465.600000,447.000000,297.000000,-208.000000,1180.000000,-11625.028718,-11995.799746,12998.700328,21166.169102,1189.749667
948.520000,465.600000,447.000000,302.000000,-204.000000,1183.000000,-11638.241647,-12009.484361,13013.741960,21190.419133,1186.612098
948.520000,465.600000,447.000000,292.000000,-202.000000,1183.000000,-11651.797472,-12023.268966,13028.938888,21215.009533,1190.967787
948.520000,465.600000,447.000000,296.000000,-200.000000,1168.000000,-11665.502350,-12037.248562,13044.082051,21239.759287,1178.408550
948.520000,465.600000,447.000000,310.000000,-196.000000,1174.000000,-11678.472607,-12050.687643,13058.849602,21263.568563,1172.156709
948.520000,465.600000,447.000000,305.000000,-210.000000,1176.000000,-11691.542498,-12064.409079,13073.655592,21287.616187,1184.058424
948.520000,465.600000,447.000000,298.000000,-206.000000,1165.000000,-11704.798144,-12078.094272,13088.286278,21311.637631,1178.875240
948.520000,465.600000,447.000000,298.000000,-203.000000,1180.000000,-11718.427188,-12092.102111,13103.643361,21336.493118,1186.377356
948.520000,465.600000,447.000000,303.000000,-208.000000,1179.000000,-11731.438289,-12105.679193,13118.397553,21360.394833,1185.857087
948.520000,465.600000,447.000000,296.000000,-210.000000,1167.000000,-11744.829305,-12119.543856,13133.173393,21384.681481,1183.476958
948.520000,465.600000,447.000000,291.000000,-207.000000,1174.000000,-11758.250603,-12133.272967,13148.012917,21408.947050,1188.802890
948.520000,465.600000,447.000000,305.000000,-202.000000,1173.000000,-11771.364254,-12146.877320,13162.807345,21432.945253,1177.660287
948.520000,465.600000,447.000000,300.000000,-210.000000,1171.000000,-11784.586928,-12160.652128,13177.568981,21457.079799,1183.718527
948.520000,465.600000,447.000000,305.000000,-208.000000,1163.000000,-11797.549351,-12174.220453,13191.991369,21480.746044,1174.951467
948.520000,465.600000,447.000000,306.000000,-199.000000,1191.000000,-11810.638126,-12187.759020,13207.147393,21504.915371,1186.617508
948.520000,465.600000,447.000000,288.000000,-192.000000,1179.000000,-11824.120000,-12201.181293,13222.088245,21529.102542,1185.136461
948.520000,465.600000,447.000000,292.000000,-198.000000,1190.000000,-11837.491343,-12214.696834,13237.220926,21553.399683,1193.076892
948.520000,465.600000,447.000000,302.000000,-215.000000,1186.000000,-11850.557512,-12228.451760,13252.156116,21577.543593,1194.707274
948.520000,465.600000,447.000000,307.000000,-198.000000,1169.000000,-11863.545084,-12241.886342,13266.773006,21601.267305,1171.834831
948.520000,465.600000,447.000000,303.000000,-198.000000,1166.000000,-11876.746614,-12255.457626,13281.477275,21625.239660,1172.186858
948.520000,465.600000,447.000000,298.000000,-211.000000,1180.000000,-11890.139520,-12269.387467,13296.568279,21649.757842,1190.904207
948.520000,465.600000,447.000000,303.000000,-200.000000,1183.000000,-11903.301027,-12282.958385,13311.574583,21673.893510,1183.813934
948.520000,465.600000,447.000000,299.000000,-201.000000,1186.000000,-11916.908471,-12296.923655,13327.056633,21698.789768,1188.424499
948.520000,465.600000,447.000000,298.000000,-200.000000,1167.000000,-11930.676727,-12311.011079,13342.295433,21723.694169,1176.690117
948.520000,465.600000,447.000000,299.000000,-203.000000,1167.000000,-11943.821063,-12324.541537,13356.866073,21747.529905,1177.837930
948.520000,465.600000,447.000000,290.000000,-196.000000,1169.000000,-11957.217335,-12338.000466,13371.553719,21771.535333,1180.104720
948.520000,465.600000,447.000000,303.000000,-212.000000,1167.000000,-11970.382716,-12351.820118,13386.238119,21795.616384,1180.778485
948.520000,465.600000,447.000000,310.000000,-204.000000,1180.000000,-11983.801214,-12365.891762,13401.642114,21820.421214,1180.407112
948.520000,465.600000,447.000000,301.000000,-194.000000,1170.000000,-11996.830611,-12379.164233,13416.190320,21844.033843,1173.491930
948.520000,465.600000,447.000000,306.000000,-204.000000,1174.000000,-12009.902038,-12392.786576,13430.980408,21868.016389,1178.866027
948.520000,465.600000,447.000000,302.000000,-205.000000,1174.000000,-12023.109795,-12406.486263,13445.832291,21892.155593,1181.618158
948.520000,465.600000,447.000000,297.000000,-209.000000,1180.000000,-12036.413182,-12420.260921,13460.799418,21916.460585,1190.316122
948.520000,465.600000,447.000000,283.000000,-203.000000,1173.000000,-12049.802779,-12433.712484,13475.405812,21940.408267,1190.386001
948.520000,465.600000,447.000000,302.000000,-198.000000,1175.000000,-12062.914851,-12447.170956,13490.170380,21964.304596,1178.277162
948.520000,465.600000,447.000000,295.000000,-203.000000,1168.000000,-12076.238817,-12460.802372,13504.870128,21988.375494,1180.658863
948.520000,465.600000,447.000000,299.000000,-198.000000,1174.000000,-12089.478632,-12474.329195,13519.689296,22012.414250,1179.309201
948.520000,465.600000,447.000000,298.000000,-193.000000,1189.000000,-12102.721268,-12487.736315,13534.794190,22036.562212,1186.378620
948.520000,465.600000,447.000000,296.000000,-202.000000,1188.000000,-12116.039201,-12501.362031,13549.918000,22060.887025,1191.869586
948.520000,465.600000,447.000000,295.000000,-209.000000,1150.000000,-12129.379505,-12515.132641,13564.268339,22084.831169,1173.193313
948.520000,465.600000,447.000000,295.000000,-194.000000,1185.000000,-12142.949848,-12528.829235,13579.592909,22109.458079,1186.087918
948.520000,465.600000,447.000000,307.000000,-204.000000,1176.000000,-12155.993874,-12542.444212,13594.415666,22133.441467,1179.556302
948.520000,465.600000,447.000000,299.000000,-198.000000,1167.000000,-12169.141458,-12555.876803,13608.989906,22157.225737,1175.006890
948.520000,465.600000,447.000000,287.000000,-203.000000,1191.000000,-12182.550468,-12569.429325,13624.070786,22181.532730,1199.237537
948.520000,465.600000,447.000000,290.000000,-208.000000,1174.000000,-12196.026421,-12583.213875,13638.948114,22205.882949,1189.922077
948.520000,465.600000,447.000000,297.000000,-197.000000,1180.000000,-12209.349354,-12596.763383,13653.937231,22230.084599,1183.556535
948.520000,465.600000,447.000000,287.000000,-204.000000,1171.000000,-12222.919114,-12610.498887,13668.788643,22254.442631,1187.496893
948.520000,465.600000,447.000000,297.000000,-207.000000,1174.000000,-12236.663580,-12624.688057,13684.125435,22279.451811,1185.494863
948.520000,465.600000,447.000000,302.000000,-210.000000,1174.000000,-12249.679320,-12638.289236,13698.761399,22303.297113,1184.462946
948.520000,465.600000,447.000000,289.000000,-190.000000,1174.000000,-12263.194204,-12651.723791,13713.659083,22327.482895,1180.384255
948.520000,465.600000,447.000000,309.000000,-199.000000,1175.000000,-12276.320992,-12665.365371,13728.602011,22351.600619,1175.016166
948.520000,465.600000,447.000000,301.000000,-199.000000,1171.000000,-12289.550473,-12678.943814,13743.394055,22375.646297,1176.924513
948.520000,465.600000,447.000000,296.000000,-202.000000,1202.000000,-12303.115711,-12692.822550,13759.089750,22400.601582,1200.623634
948.520000,465.600000,447.000000,297.000000,-206.000000,1174.000000,-12316.428219,-12706.545353,13773.944541,22424.813201,1184.927791
948.520000,465.600000,447.000000,306.000000,-204.000000,1170.000000,-12329.483583,-12720.150955,13788.635178,22448.716351,1176.403464
948.520000,465.600000,447.000000,304.000000,-209.000000,1158.000000,-12342.674974,-12733.957993,13803.187215,22472.723221,1173.035460
948.520000,465.600000,447.000000,288.000000,-209.000000,1187.000000,-12356.191855,-12747.763008,13818.330575,22497.270917,1199.571520
948.520000,465.600000,447.000000,303.000000,-204.000000,1166.000000,-12369.407586,-12761.471729,13833.050662,22521.338666,1175.593990
948.520000,465.600000,447.000000,291.000000,-209.000000,1184.000000,-12382.856500,-12775.269997,13848.125260,22545.802975,1196.071365
948.520000,465.600000,447.000000,297.000000,-209.000000,1180.000000,-12396.281721,-12789.170805,13863.229458,22570.330555,1190.316122
948.520000,465.600000,447.000000,287.000000,-199.000000,1192.000000,-12413.042654,-12806.009775,13882.105523,22600.671849,1197.633863
948.520000,465.600000,447.000000,309.000000,-203.000000,1185.000000,-12426.477050,-12820.055055,13897.608689,22625.531392,1183.493046
948.520000,465.600000,447.000000,292.000000,-208.000000,1179.000000,-12439.719715,-12833.642241,13912.373861,22649.572759,1191.880644
948.520000,465.600000,447.000000,303.000000,-205.000000,1184.000000,-12452.925118,-12847.360705,13927.450670,22673.859469,1187.252892
948.520000,465.600000,447.000000,299.000000,-199.000000,1168.000000,-12466.248721,-12860.993645,13942.240543,22697.986388,1176.184675
948.520000,465.600000,447.000000,305.000000,-205.000000,1190.000000,-12479.375242,-12874.672543,13957.396257,22722.255826,1189.903925
948.520000,465.600000,447.000000,297.000000,-218.000000,1167.000000,-12492.848025,-12888.808708,13972.285137,22746.810625,1187.513061
948.520000,465.600000,447.000000,304.000000,-203.000000,1170.000000,-12505.987209,-12902.438787,13987.024215,22770.803436,1176.928626
948.520000,465.600000,447.000000,305.000000,-200.000000,1168.000000,-12519.104721,-12916.006378,14001.721079,22794.723006,1173.448913
948.520000,465.600000,447.000000,302.000000,-198.000000,1195.000000,-12532.207095,-12929.454895,14016.880047,22818.850646,1190.738036
948.520000,465.600000,447.000000,297.000000,-185.000000,1181.000000,-12545.490285,-12942.719328,14031.844839,22842.854018,1177.503576
948.520000,465.600000,447.000000,297.000000,-208.000000,1178.000000,-12559.934483,-12957.653040,14048.051109,22869.203451,1188.518519
948.520000,465.600000,447.000000,292.000000,-206.000000,1171.000000,-12573.265122,-12971.289878,14062.751929,22893.281738,1185.850358
948.520000,465.600000,447.000000,295.000000,-210.000000,1168.000000,-12586.606733,-12985.082252,14077.471144,22917.465478,1184.636970
948.520000,465.600000,447.000000,303.000000,-210.000000,1164.000000,-12599.794706,-12998.884760,14092.119454,22941.527027,1177.803222
948.520000,465.600000,447.000000,291.000000,-207.000000,1175.000000,-12613.121322,-13012.517017,14106.874558,22965.633855,1189.414692
948.520000,465.600000,447.000000,288.000000,-196.000000,1158.000000,-12626.413626,-13025.831055,14121.182722,22989.267000,1174.530643
948.520000,465.600000,447.000000,290.000000,-198.000000,1188.000000,-12639.792777,-13039.313417,14136.237619,23013.501903,1192.935267
948.520000,465.600000,447.000000,305.000000,-215.000000,1175.000000,-12653.004243,-13053.286135,14151.183459,23037.855555,1186.304493
948.520000,465.600000,447.000000,298.000000,-207.000000,1168.000000,-12666.262491,-13066.994395,14165.878160,23061.930796,1181.273902
948.520000,465.600000,447.000000,299.000000,-193.000000,1170.000000,-12679.554918,-13080.472644,14180.674355,23085.956828,1174.035430
948.520000,465.600000,447.000000,286.000000,-210.000000,1179.000000,-12692.962997,-13094.145437,14195.488571,23110.167679,1196.324417
948.520000,465.600000,447.000000,303.000000,-192.000000,1178.000000,-12706.200030,-13107.630183,14210.478457,23134.285945,1176.220570
948.520000,465.600000,447.000000,295.000000,-206.000000,1170.000000,-12719.556672,-13121.356343,14225.255131,23158.475722,1183.580986
948.520000,465.600000,447.000000,296.000000,-199.000000,1167.000000,-12732.860903,-13134.906873,14239.935211,23182.477868,1177.232140
948.520000,465.600000,447.000000,295.000000,-208.000000,1168.000000,-12746.479606,-13148.944023,14254.960130,23207.140271,1183.497508
948.520000,465.600000,447.000000,296.000000,-205.000000,1154.000000,-12759.681390,-13162.511602,14269.264154,23230.864822,1172.747079
948.520000,465.600000,447.000000,301.000000,-202.000000,1182.000000,-12772.908929,-13176.149335,14284.278734,23255.079719,1185.410018
948.520000,465.600000,447.000000,305.000000,-204.000000,1184.000000,-12786.059260,-13189.832611,14299.339329,23279.306282,1185.601599
948.520000,465.600000,447.000000,290.000000,-214.000000,1161.000000,-12799.370583,-13203.570046,14313.772125,23303.266332,1185.453816
948.520000,465.600000,447.000000,298.000000,-213.000000,1181.000000,-12812.787558,-13217.566171,14328.910875,23327.864612,1192.656795
948.520000,465.600000,447.000000,296.000000,-209.000000,1179.000000,-12826.009571,-13231.235590,14343.743391,23351.982597,1190.248508
948.520000,465.600000,447.000000,298.000000,-198.000000,1147.000000,-12839.384262,-13244.879206,14358.135391,23375.899241,1163.417909
948.520000,465.600000,447.000000,291.000000,-208.000000,1181.000000,-12852.798328,-13258.621320,14373.109725,23400.251010,1193.660551
948.520000,465.600000,447.000000,291.000000,-206.000000,1165.000000,-12866.749587,-13272.871329,14388.344249,23425.345429,1182.752345
948.520000,465.600000,447.000000,291.000000,-197.000000,1190.000000,-12880.105134,-13286.330060,14403.436065,23449.576653,1193.071796
948.520000,465.600000,447.000000,279.000000,-209.000000,1172.000000,-12893.768698,-13300.097297,14418.231865,23473.970040,1195.394157
948.520000,465.600000,447.000000,300.000000,-208.000000,1189.000000,-12906.995263,-13313.835369,14433.364955,23498.314043,1193.683019
948.520000,465.600000,447.000000,288.000000,-200.000000,1175.000000,-12920.459963,-13327.403625,14448.205235,23522.512781,1187.136905
948.520000,465.600000,447.000000,304.000000,-192.000000,1194.000000,-12933.650710,-13340.862066,14463.493337,23546.773895,1185.686632
948.520000,465.600000,447.000000,297.000000,-196.000000,1172.000000,-12946.758641,-13354.172797,14478.079612,23570.474743,1178.056820
948.520000,465.600000,447.000000,301.000000,-213.000000,1167.000000,-12959.834012,-13367.875767,14492.618572,23594.350875,1182.446663
948.520000,465.600000,447.000000,298.000000,-208.000000,1191.000000,-12973.207402,-13381.723635,14507.913724,23618.937283,1196.013892
948.520000,465.600000,447.000000,291.000000,-201.000000,1172.000000,-12986.671439,-13395.373604,14522.759549,23643.185360,1184.193021
948.520000,465.600000,447.000000,305.000000,-202.000000,1170.000000,-12999.765141,-13408.957261,14537.470430,23667.109562,1175.813229
948.520000,465.600000,447.000000,291.000000,-209.000000,1187.000000,-13013.029949,-13422.566641,14552.399190,23691.276155,1197.922247
948.520000,465.600000,447.000000,294.000000,-201.000000,1164.000000,-13026.407683,-13436.191279,14567.053953,23715.345118,1177.642132
948.520000,465.600000,447.000000,292.000000,-213.000000,1176.000000,-13039.812509,-13450.046933,14581.938675,23739.701099,1192.877810
948.520000,465.600000,447.000000,304.000000,-201.000000,1163.000000,-13052.985208,-13463.670904,14596.572283,23763.644070,1171.502279
948.520000,465.600000,447.000000,295.000000,-206.000000,1184.000000,-13066.893421,-13477.963895,14612.257117,23789.015795,1192.184529
948.520000,465.600000,447.000000,298.000000,-210.000000,1182.000000,-13080.050839,-13491.628581,14627.123227,23813.116251,1191.568978
948.520000,465.600000,447.000000,289.000000,-207.000000,1159.000000,-13093.544618,-13505.389977,14641.690747,23837.272852,1180.805399
948.520000,465.600000,447.000000,292.000000,-202.000000,1181.000000,-13106.931061,-13519.002341,14656.657007,23861.530980,1189.732857
948.520000,465.600000,447.000000,306.000000,-204.000000,1174.000000,-13120.065454,-13532.690304,14671.518341,23885.629044,1178.866027
948.520000,465.600000,447.000000,293.000000,-201.000000,1178.000000,-13133.717314,-13546.572916,14686.742147,23910.344270,1186.769999
948.520000,465.600000,447.000000,288.000000,-204.000000,1190.000000,-13147.123888,-13560.163787,14701.822818,23934.671559,1198.624141
948.520000,465.600000,447.000000,295.000000,-208.000000,1177.000000,-13160.436744,-13573.885693,14716.693648,23958.892713,1189.001829
948.520000,465.600000,447.000000,304.000000,-206.000000,1164.000000,-13173.557238,-13587.557454,14731.289617,23982.810962,1174.964506
948.520000,465.600000,447.000000,293.000000,-207.000000,1169.000000,-13186.958033,-13601.307416,14746.049463,24007.028145,1184.643926
948.520000,465.600000,447.000000,307.000000,-197.000000,1172.000000,-13200.682712,-13615.483080,14761.560113,24032.125593,1173.120484
948.520000,465.600000,447.000000,289.000000,-207.000000,1169.000000,-13214.208148,-13629.276761,14776.366889,24056.464837,1186.861993
948.520000,465.600000,447.000000,301.000000,-206.000000,1177.000000,-13227.467415,-13643.029114,14791.315099,24080.721334,1184.579550
948.520000,465.600000,447.000000,302.000000,-204.000000,1177.000000,-13240.674526,-13656.707703,14806.227539,24104.885420,1182.899941
948.520000,465.600000,447.000000,311.000000,-195.000000,1170.000000,-13253.709897,-13670.214991,14821.010720,24128.778724,1168.568830
948.520000,465.600000,447.000000,291.000000,-208.000000,1176.000000,-13267.026650,-13683.857412,14835.775157,24152.891634,1190.592504
948.520000,465.600000,447.000000,296.000000,-203.000000,1174.000000,-13280.323702,-13697.482143,14850.589963,24177.014641,1183.780939
948.520000,465.600000,447.000000,291.000000,-196.000000,1178.000000,-13293.915956,-13711.158738,14865.701195,24201.511262,1185.077259
948.520000,465.600000,447.000000,298.000000,-204.000000,1179.000000,-13307.221041,-13724.854067,14880.672791,24225.774987,1186.323915
948.520000,465.600000,447.000000,308.000000,-196.000000,1165.000000,-13320.816078,-13738.896527,14895.912341,24250.559235,1167.691924
948.520000,465.600000,447.000000,292.000000,-198.000000,1189.000000,-13334.132930,-13752.356989,14910.963069,24274.744971,1192.454389
948.520000,465.600000,447.000000,303.000000,-210.000000,1166.000000,-13347.255706,-13766.091261,14925.579620,24298.712527,1179.021811
948.520000,465.600000,447.000000,311.000000,-202.000000,1176.000000,-13363.617657,-13783.225215,14944.289405,24328.899688,1176.249340
948.520000,465.600000,447.000000,286.000000,-209.000000,1170.000000,-13377.263581,-13797.119952,14959.181036,24353.414486,1190.271780
948.520000,465.600000,447.000000,305.000000,-205.000000,1180.000000,-13390.231153,-13810.633212,14973.951719,24377.266256,1183.685495
